key_resp.keys,key_resp.rt,eng_proficiency.response,eng_proficiency.rt,eng_proficiency_2.response,eng_proficiency_2.rt,accent_rating.response,accent_rating.rt,accent_rating_2.response,accent_rating_2.rt,trials.thisRepN,trials.thisTrialN,trials.thisN,trials.thisIndex,trials.ran,stim,participant,Cuántos años tenía cuando ud. empezó a aprender el inglés?,Ha enseñado el español cómo seguna lengua?,date,expName,psychopyVersion,OS,frameRate
space,1.6769,1.8671875,3.6601,6.979166667,3.0342,1.09375,9.973,3.020833333,4.6132,0,0,0,50,1,481532_sentence_1.wav,5b146e7bc85dc40001624518,4,no,2022-05-27_15h58.37.790,ratings_exp,2022.1.4,Win32,59.79430758
,,,,,,1.760416667,6.2544,7.052083333,1.5189,0,1,1,71,1,485976_sentence_2.wav,5b146e7bc85dc40001624518,4,no,2022-05-27_15h58.37.790,ratings_exp,2022.1.4,Win32,59.79430758
,,,,,,2.96875,11.5111,7.09375,1.2306,0,2,2,36,1,472263_sentence_1.wav,5b146e7bc85dc40001624518,4,no,2022-05-27_15h58.37.790,ratings_exp,2022.1.4,Win32,59.79430758
,,,,,,2.927083333,9.3224,7.9375,1.2952,0,3,3,30,1,470408_sentence_1.wav,5b146e7bc85dc40001624518,4,no,2022-05-27_15h58.37.790,ratings_exp,2022.1.4,Win32,59.79430758
,,,,,,1.135416667,4.9403,1.135416667,0.6665,0,4,4,54,1,484271_sentence_1.wav,5b146e7bc85dc40001624518,4,no,2022-05-27_15h58.37.790,ratings_exp,2022.1.4,Win32,59.79430758
,,,,,,1.947916667,6.792,5.052083333,1.323,0,5,5,32,1,470901_sentence_1.wav,5b146e7bc85dc40001624518,4,no,2022-05-27_15h58.37.790,ratings_exp,2022.1.4,Win32,59.79430758
,,,,,,1.239583333,5.5274,3.041666667,1.4532,0,6,6,58,1,484549_sentence_1.wav,5b146e7bc85dc40001624518,4,no,2022-05-27_15h58.37.790,ratings_exp,2022.1.4,Win32,59.79430758
,,,,,,1.979166667,8.4087,5.083333333,1.3128,0,7,7,9,1,469558_sentence_2.wav,5b146e7bc85dc40001624518,4,no,2022-05-27_15h58.37.790,ratings_exp,2022.1.4,Win32,59.79430758
,,,,,,1.25,5.0645,3.833333333,2.9485,0,8,8,38,1,472268_sentence_1.wav,5b146e7bc85dc40001624518,4,no,2022-05-27_15h58.37.790,ratings_exp,2022.1.4,Win32,59.79430758
,,,,,,1.364583333,7.3046,3.0625,3.9962,0,9,9,14,1,469635_sentence_1.wav,5b146e7bc85dc40001624518,4,no,2022-05-27_15h58.37.790,ratings_exp,2022.1.4,Win32,59.79430758
,,,,,,1.708333333,10.794,4.0625,2.4866,0,10,10,11,1,469581_sentence_2.wav,5b146e7bc85dc40001624518,4,no,2022-05-27_15h58.37.790,ratings_exp,2022.1.4,Win32,59.79430758
,,,,,,2.875,9.0667,6.09375,1.7461,0,11,11,28,1,469909_sentence_1.wav,5b146e7bc85dc40001624518,4,no,2022-05-27_15h58.37.790,ratings_exp,2022.1.4,Win32,59.79430758
,,,,,,1.145833333,5.5178,1.145833333,0.5636,0,12,12,53,1,481962_sentence_2.wav,5b146e7bc85dc40001624518,4,no,2022-05-27_15h58.37.790,ratings_exp,2022.1.4,Win32,59.79430758
,,,,,,1.895833333,12.4113,4.9375,2.0634,0,13,13,45,1,479845_sentence_2.wav,5b146e7bc85dc40001624518,4,no,2022-05-27_15h58.37.790,ratings_exp,2022.1.4,Win32,59.79430758
,,,,,,2,5.0752,7.041666667,1.3427,0,14,14,66,1,485567_sentence_1.wav,5b146e7bc85dc40001624518,4,no,2022-05-27_15h58.37.790,ratings_exp,2022.1.4,Win32,59.79430758
,,,,,,2.25,6.9015,5.229166667,3.0578,0,15,15,21,1,469805_sentence_2.wav,5b146e7bc85dc40001624518,4,no,2022-05-27_15h58.37.790,ratings_exp,2022.1.4,Win32,59.79430758
,,,,,,2.322916667,5.8962,6.364583333,1.7565,0,16,16,10,1,469581_sentence_1.wav,5b146e7bc85dc40001624518,4,no,2022-05-27_15h58.37.790,ratings_exp,2022.1.4,Win32,59.79430758
,,,,,,1.333333333,7.5087,5.135416667,1.3919,0,17,17,20,1,469805_sentence_1.wav,5b146e7bc85dc40001624518,4,no,2022-05-27_15h58.37.790,ratings_exp,2022.1.4,Win32,59.79430758
,,,,,,1.416666667,8.0728,6.916666667,3.7843,0,18,18,39,1,472268_sentence_2.wav,5b146e7bc85dc40001624518,4,no,2022-05-27_15h58.37.790,ratings_exp,2022.1.4,Win32,59.79430758
,,,,,,1.75,8.4973,7.385416667,2.3411,0,19,19,75,1,487969_sentence_2.wav,5b146e7bc85dc40001624518,4,no,2022-05-27_15h58.37.790,ratings_exp,2022.1.4,Win32,59.79430758
,,,,,,1.96875,5.7751,7.260416667,1.4318,0,20,20,73,1,487696_sentence_2.wav,5b146e7bc85dc40001624518,4,no,2022-05-27_15h58.37.790,ratings_exp,2022.1.4,Win32,59.79430758
,,,,,,1.5,8.5168,5.489583333,1.923,0,21,21,7,1,469553_sentence_2.wav,5b146e7bc85dc40001624518,4,no,2022-05-27_15h58.37.790,ratings_exp,2022.1.4,Win32,59.79430758
,,,,,,1.583333333,7.7667,6.020833333,1.3669,0,22,22,42,1,477072_sentence_1.wav,5b146e7bc85dc40001624518,4,no,2022-05-27_15h58.37.790,ratings_exp,2022.1.4,Win32,59.79430758
,,,,,,1.541666667,8.5025,3.447916667,3.2472,0,23,23,65,1,485507_sentence_2.wav,5b146e7bc85dc40001624518,4,no,2022-05-27_15h58.37.790,ratings_exp,2022.1.4,Win32,59.79430758
,,,,,,1.760416667,6.4166,4.989583333,1.2551,0,24,24,41,1,475707_sentence_2.wav,5b146e7bc85dc40001624518,4,no,2022-05-27_15h58.37.790,ratings_exp,2022.1.4,Win32,59.79430758
,,,,,,2.697916667,9.0001,6.604166667,2.0847,0,25,25,46,1,479904_sentence_1.wav,5b146e7bc85dc40001624518,4,no,2022-05-27_15h58.37.790,ratings_exp,2022.1.4,Win32,59.79430758
,,,,,,2.510416667,8.3644,6.385416667,1.511,0,26,26,76,1,488322_sentence_1.wav,5b146e7bc85dc40001624518,4,no,2022-05-27_15h58.37.790,ratings_exp,2022.1.4,Win32,59.79430758
,,,,,,2.447916667,8.052,6.979166667,1.8873,0,27,27,25,1,469875_sentence_2.wav,5b146e7bc85dc40001624518,4,no,2022-05-27_15h58.37.790,ratings_exp,2022.1.4,Win32,59.79430758
,,,,,,2.302083333,8.6796,6.03125,1.6744,0,28,28,19,1,469737_sentence_2.wav,5b146e7bc85dc40001624518,4,no,2022-05-27_15h58.37.790,ratings_exp,2022.1.4,Win32,59.79430758
,,,,,,2.166666667,8.9246,6.520833333,1.5756,0,29,29,63,1,484860_sentence_2.wav,5b146e7bc85dc40001624518,4,no,2022-05-27_15h58.37.790,ratings_exp,2022.1.4,Win32,59.79430758
,,,,,,1.9375,8.112,7.010416667,1.4508,0,30,30,44,1,479845_sentence_1.wav,5b146e7bc85dc40001624518,4,no,2022-05-27_15h58.37.790,ratings_exp,2022.1.4,Win32,59.79430758
,,,,,,1.572916667,8.6921,4.989583333,1.3721,0,31,31,6,1,469553_sentence_1.wav,5b146e7bc85dc40001624518,4,no,2022-05-27_15h58.37.790,ratings_exp,2022.1.4,Win32,59.79430758
,,,,,,1.354166667,11.5172,3.90625,1.2371,0,32,32,62,1,484860_sentence_1.wav,5b146e7bc85dc40001624518,4,no,2022-05-27_15h58.37.790,ratings_exp,2022.1.4,Win32,59.79430758
,,,,,,1.989583333,5.568,7.979166667,1.4041,0,33,33,22,1,469865_sentence_1.wav,5b146e7bc85dc40001624518,4,no,2022-05-27_15h58.37.790,ratings_exp,2022.1.4,Win32,59.79430758
,,,,,,1.34375,5.819,6.125,2.0367,0,34,34,8,1,469558_sentence_1.wav,5b146e7bc85dc40001624518,4,no,2022-05-27_15h58.37.790,ratings_exp,2022.1.4,Win32,59.79430758
,,,,,,1.020833333,6.4497,5.875,2.378,0,35,35,5,1,469495_sentence_2.wav,5b146e7bc85dc40001624518,4,no,2022-05-27_15h58.37.790,ratings_exp,2022.1.4,Win32,59.79430758
,,,,,,1.270833333,9.82,3.916666667,1.416,0,36,36,43,1,477072_sentence_2.wav,5b146e7bc85dc40001624518,4,no,2022-05-27_15h58.37.790,ratings_exp,2022.1.4,Win32,59.79430758
,,,,,,1.864583333,6.5348,4.614583333,2.6269,0,37,37,37,1,472263_sentence_2.wav,5b146e7bc85dc40001624518,4,no,2022-05-27_15h58.37.790,ratings_exp,2022.1.4,Win32,59.79430758
,,,,,,2.979166667,8.1917,7.895833333,1.9215,0,38,38,0,1,469431_sentence_1.wav,5b146e7bc85dc40001624518,4,no,2022-05-27_15h58.37.790,ratings_exp,2022.1.4,Win32,59.79430758
,,,,,,2.5,7.2865,6.947916667,1.3385,0,39,39,29,1,469909_sentence_2.wav,5b146e7bc85dc40001624518,4,no,2022-05-27_15h58.37.790,ratings_exp,2022.1.4,Win32,59.79430758
,,,,,,2.09375,8.4625,5.90625,1.4484,0,40,40,52,1,481962_sentence_1.wav,5b146e7bc85dc40001624518,4,no,2022-05-27_15h58.37.790,ratings_exp,2022.1.4,Win32,59.79430758
,,,,,,1.5625,7.4976,6.958333333,1.4843,0,41,41,1,1,469431_sentence_2.wav,5b146e7bc85dc40001624518,4,no,2022-05-27_15h58.37.790,ratings_exp,2022.1.4,Win32,59.79430758
,,,,,,2.260416667,8.458,6.989583333,1.8255,0,42,42,33,1,470901_sentence_2.wav,5b146e7bc85dc40001624518,4,no,2022-05-27_15h58.37.790,ratings_exp,2022.1.4,Win32,59.79430758
,,,,,,1.072916667,10.0146,1.072916667,0.8911,0,43,43,61,1,484573_sentence_2.wav,5b146e7bc85dc40001624518,4,no,2022-05-27_15h58.37.790,ratings_exp,2022.1.4,Win32,59.79430758
,,,,,,1.177083333,12.8915,5.46875,3.5124,0,44,44,64,1,485507_sentence_1.wav,5b146e7bc85dc40001624518,4,no,2022-05-27_15h58.37.790,ratings_exp,2022.1.4,Win32,59.79430758
,,,,,,5.958333333,7.2865,8.958333333,1.3567,0,45,45,77,1,488322_sentence_2.wav,5b146e7bc85dc40001624518,4,no,2022-05-27_15h58.37.790,ratings_exp,2022.1.4,Win32,59.79430758
,,,,,,1.114583333,7.5053,1.114583333,1.3886,0,46,46,34,1,471720_sentence_1.wav,5b146e7bc85dc40001624518,4,no,2022-05-27_15h58.37.790,ratings_exp,2022.1.4,Win32,59.79430758
,,,,,,1.697916667,10.4165,4.885416667,1.3206,0,47,47,48,1,480419_sentence_1.wav,5b146e7bc85dc40001624518,4,no,2022-05-27_15h58.37.790,ratings_exp,2022.1.4,Win32,59.79430758
,,,,,,1.833333333,8.5265,2.979166667,1.9574,0,48,48,51,1,481532_sentence_2.wav,5b146e7bc85dc40001624518,4,no,2022-05-27_15h58.37.790,ratings_exp,2022.1.4,Win32,59.79430758
,,,,,,4.010416667,8.659,8.104166667,1.7367,0,49,49,2,1,469440_sentence_1.wav,5b146e7bc85dc40001624518,4,no,2022-05-27_15h58.37.790,ratings_exp,2022.1.4,Win32,59.79430758
,,,,,,1.958333333,7.7572,7.135416667,1.4239,0,50,50,18,1,469737_sentence_1.wav,5b146e7bc85dc40001624518,4,no,2022-05-27_15h58.37.790,ratings_exp,2022.1.4,Win32,59.79430758
,,,,,,1.979166667,5.8995,7.197916667,1.3387,0,51,51,70,1,485976_sentence_1.wav,5b146e7bc85dc40001624518,4,no,2022-05-27_15h58.37.790,ratings_exp,2022.1.4,Win32,59.79430758
,,,,,,1.25,6.8865,6.5625,1.6732,0,52,52,23,1,469865_sentence_2.wav,5b146e7bc85dc40001624518,4,no,2022-05-27_15h58.37.790,ratings_exp,2022.1.4,Win32,59.79430758
,,,,,,2.010416667,5.7147,8.958333333,2.8115,0,53,53,56,1,484457_sentence_1.wav,5b146e7bc85dc40001624518,4,no,2022-05-27_15h58.37.790,ratings_exp,2022.1.4,Win32,59.79430758
,,,,,,6.989583333,10.1644,8.9375,1.2894,0,54,54,26,1,469883_sentence_1.wav,5b146e7bc85dc40001624518,4,no,2022-05-27_15h58.37.790,ratings_exp,2022.1.4,Win32,59.79430758
,,,,,,1.677083333,8.2498,6.25,4.705,0,55,55,47,1,479904_sentence_2.wav,5b146e7bc85dc40001624518,4,no,2022-05-27_15h58.37.790,ratings_exp,2022.1.4,Win32,59.79430758
,,,,,,1.072916667,6.1547,1.072916667,0.8237,0,56,56,35,1,471720_sentence_2.wav,5b146e7bc85dc40001624518,4,no,2022-05-27_15h58.37.790,ratings_exp,2022.1.4,Win32,59.79430758
,,,,,,1.666666667,5.9638,4,2.1424,0,57,57,15,1,469635_sentence_2.wav,5b146e7bc85dc40001624518,4,no,2022-05-27_15h58.37.790,ratings_exp,2022.1.4,Win32,59.79430758
,,,,,,1.479166667,4.4292,7.875,1.4237,0,58,58,57,1,484457_sentence_2.wav,5b146e7bc85dc40001624518,4,no,2022-05-27_15h58.37.790,ratings_exp,2022.1.4,Win32,59.79430758
,,,,,,1.697916667,7.5692,6.291666667,2.061,0,59,59,49,1,480419_sentence_2.wav,5b146e7bc85dc40001624518,4,no,2022-05-27_15h58.37.790,ratings_exp,2022.1.4,Win32,59.79430758
,,,,,,1.791666667,4.9777,8.03125,1.4062,0,60,60,72,1,487696_sentence_1.wav,5b146e7bc85dc40001624518,4,no,2022-05-27_15h58.37.790,ratings_exp,2022.1.4,Win32,59.79430758
,,,,,,1.552083333,10.8252,5.03125,3.0361,0,61,61,40,1,475707_sentence_1.wav,5b146e7bc85dc40001624518,4,no,2022-05-27_15h58.37.790,ratings_exp,2022.1.4,Win32,59.79430758
,,,,,,1.770833333,6.5059,7,1.4303,0,62,62,69,1,485605_sentence_2.wav,5b146e7bc85dc40001624518,4,no,2022-05-27_15h58.37.790,ratings_exp,2022.1.4,Win32,59.79430758
,,,,,,1.010416667,6.106,5.46875,2.5394,0,63,63,67,1,485567_sentence_2.wav,5b146e7bc85dc40001624518,4,no,2022-05-27_15h58.37.790,ratings_exp,2022.1.4,Win32,59.79430758
,,,,,,1.21875,9.731,1,1.4359,0,64,64,60,1,484573_sentence_1.wav,5b146e7bc85dc40001624518,4,no,2022-05-27_15h58.37.790,ratings_exp,2022.1.4,Win32,59.79430758
,,,,,,1.916666667,6.2973,7.65625,1.7255,0,65,65,3,1,469440_sentence_2.wav,5b146e7bc85dc40001624518,4,no,2022-05-27_15h58.37.790,ratings_exp,2022.1.4,Win32,59.79430758
,,,,,,1.25,7.5564,4.020833333,1.4136,0,66,66,59,1,484549_sentence_2.wav,5b146e7bc85dc40001624518,4,no,2022-05-27_15h58.37.790,ratings_exp,2022.1.4,Win32,59.79430758
,,,,,,7.822916667,10.2751,7.822916667,1.3631,0,67,67,68,1,485605_sentence_1.wav,5b146e7bc85dc40001624518,4,no,2022-05-27_15h58.37.790,ratings_exp,2022.1.4,Win32,59.79430758
,,,,,,1.6875,4.3805,6.65625,1.5486,0,68,68,16,1,469639_sentence_1.wav,5b146e7bc85dc40001624518,4,no,2022-05-27_15h58.37.790,ratings_exp,2022.1.4,Win32,59.79430758
,,,,,,1.5625,5.5679,5.479166667,1.3554,0,69,69,74,1,487969_sentence_1.wav,5b146e7bc85dc40001624518,4,no,2022-05-27_15h58.37.790,ratings_exp,2022.1.4,Win32,59.79430758
,,,,,,1.614583333,11.0053,7.03125,2.1828,0,70,70,4,1,469495_sentence_1.wav,5b146e7bc85dc40001624518,4,no,2022-05-27_15h58.37.790,ratings_exp,2022.1.4,Win32,59.79430758
,,,,,,1.614583333,9.2332,6.520833333,2.4685,0,71,71,17,1,469639_sentence_2.wav,5b146e7bc85dc40001624518,4,no,2022-05-27_15h58.37.790,ratings_exp,2022.1.4,Win32,59.79430758
,,,,,,1.791666667,7.8002,7.53125,1.6545,0,72,72,31,1,470408_sentence_2.wav,5b146e7bc85dc40001624518,4,no,2022-05-27_15h58.37.790,ratings_exp,2022.1.4,Win32,59.79430758
,,,,,,2.416666667,15.0922,7.072916667,2.0442,0,73,73,13,1,469614_sentence_2.wav,5b146e7bc85dc40001624518,4,no,2022-05-27_15h58.37.790,ratings_exp,2022.1.4,Win32,59.79430758
,,,,,,8.020833333,5.89,8.927083333,1.486,0,74,74,27,1,469883_sentence_2.wav,5b146e7bc85dc40001624518,4,no,2022-05-27_15h58.37.790,ratings_exp,2022.1.4,Win32,59.79430758
,,,,,,2.947916667,8.4872,7.979166667,2.5035,0,75,75,12,1,469614_sentence_1.wav,5b146e7bc85dc40001624518,4,no,2022-05-27_15h58.37.790,ratings_exp,2022.1.4,Win32,59.79430758
,,,,,,1.0625,7.0852,1.0625,0.8516,0,76,76,55,1,484271_sentence_2.wav,5b146e7bc85dc40001624518,4,no,2022-05-27_15h58.37.790,ratings_exp,2022.1.4,Win32,59.79430758
,,,,,,2.6875,5.7588,7.989583333,2.851,0,77,77,24,1,469875_sentence_1.wav,5b146e7bc85dc40001624518,4,no,2022-05-27_15h58.37.790,ratings_exp,2022.1.4,Win32,59.79430758
