key_resp.keys,key_resp.rt,eng_proficiency.response,eng_proficiency.rt,eng_proficiency_2.response,eng_proficiency_2.rt,accent_rating.response,accent_rating.rt,accent_rating_2.response,accent_rating_2.rt,trials.thisRepN,trials.thisTrialN,trials.thisN,trials.thisIndex,trials.ran,stim,participant,Cuántos años tenía cuando ud. empezó a aprender el inglés?,Ha enseñado el español cómo seguna lengua?,date,expName,psychopyVersion,OS,frameRate
space,17.9305,6.09166654,3.8314,7.007407294,6.1956,4.022222448,13.2637,1.06666678,11.5375,0,0,0,53,1,481962_sentence_2.wav,5b220a2738fc0c0001312cf5,10,si,2022-05-27_15h40.15.095,ratings_exp,2022.1.4,Win32,60.44487427
,,,,,,1.014814871,13.0462,4.992592706,3.3071,0,1,1,9,1,469558_sentence_2.wav,5b220a2738fc0c0001312cf5,10,si,2022-05-27_15h40.15.095,ratings_exp,2022.1.4,Win32,60.44487427
,,,,,,4.992592706,8.7873,8.985185411,5.0418,0,2,2,66,1,485567_sentence_1.wav,5b220a2738fc0c0001312cf5,10,si,2022-05-27_15h40.15.095,ratings_exp,2022.1.4,Win32,60.44487427
,,,,,,6,6.6787,4.074074074,2.2386,0,3,3,71,1,485976_sentence_2.wav,5b220a2738fc0c0001312cf5,10,si,2022-05-27_15h40.15.095,ratings_exp,2022.1.4,Win32,60.44487427
,,,,,,8.992593271,8.5939,8.933333785,2.8726,0,4,4,24,1,469875_sentence_1.wav,5b220a2738fc0c0001312cf5,10,si,2022-05-27_15h40.15.095,ratings_exp,2022.1.4,Win32,60.44487427
,,,,,,2.956302931,13.268,5.053781376,529.6027,0,5,5,31,1,470408_sentence_2.wav,5b220a2738fc0c0001312cf5,10,si,2022-05-27_15h40.15.095,ratings_exp,2022.1.4,Win32,60.44487427
,,,,,,1.020168272,8.3964,1,4.5569,0,6,6,51,1,481532_sentence_2.wav,5b220a2738fc0c0001312cf5,10,si,2022-05-27_15h40.15.095,ratings_exp,2022.1.4,Win32,60.44487427
,,,,,,8.101401107,6.5573,8.988795518,2.2249,0,7,7,26,1,469883_sentence_1.wav,5b220a2738fc0c0001312cf5,10,si,2022-05-27_15h40.15.095,ratings_exp,2022.1.4,Win32,60.44487427
,,,,,,3.063865683,8.9898,5.116526884,1.2432,0,8,8,75,1,487969_sentence_2.wav,5b220a2738fc0c0001312cf5,10,si,2022-05-27_15h40.15.095,ratings_exp,2022.1.4,Win32,60.44487427
,,,,,,9,9.4257,8.05658318,2.0724,0,9,9,27,1,469883_sentence_2.wav,5b220a2738fc0c0001312cf5,10,si,2022-05-27_15h40.15.095,ratings_exp,2022.1.4,Win32,60.44487427
,,,,,,3.045938786,7.2413,7.007843274,4.6282,0,10,10,29,1,469909_sentence_2.wav,5b220a2738fc0c0001312cf5,10,si,2022-05-27_15h40.15.095,ratings_exp,2022.1.4,Win32,60.44487427
,,,,,,1.99719888,20.7104,5.02689103,7.9238,0,11,11,67,1,485567_sentence_2.wav,5b220a2738fc0c0001312cf5,10,si,2022-05-27_15h40.15.095,ratings_exp,2022.1.4,Win32,60.44487427
,,,,,,5.044817927,9.5541,7.06162465,1.4584,0,12,12,39,1,472268_sentence_2.wav,5b220a2738fc0c0001312cf5,10,si,2022-05-27_15h40.15.095,ratings_exp,2022.1.4,Win32,60.44487427
,,,,,,3.090756713,8.8371,3.951260778,1.4602,0,13,13,50,1,481532_sentence_1.wav,5b220a2738fc0c0001312cf5,10,si,2022-05-27_15h40.15.095,ratings_exp,2022.1.4,Win32,60.44487427
,,,,,,3.960224226,5.7286,3.951260778,3.0957,0,14,14,10,1,469581_sentence_1.wav,5b220a2738fc0c0001312cf5,10,si,2022-05-27_15h40.15.095,ratings_exp,2022.1.4,Win32,60.44487427
,,,,,,3.987115256,44.5557,4.049860081,3.1862,0,15,15,15,1,469635_sentence_2.wav,5b220a2738fc0c0001312cf5,10,si,2022-05-27_15h40.15.095,ratings_exp,2022.1.4,Win32,60.44487427
,,,,,,1,10.3051,2.96526638,1.3598,0,16,16,62,1,484860_sentence_1.wav,5b220a2738fc0c0001312cf5,10,si,2022-05-27_15h40.15.095,ratings_exp,2022.1.4,Win32,60.44487427
,,,,,,2.983193277,4.212,4.031933183,1.6795,0,17,17,22,1,469865_sentence_1.wav,5b220a2738fc0c0001312cf5,10,si,2022-05-27_15h40.15.095,ratings_exp,2022.1.4,Win32,60.44487427
,,,,,,5.950139919,7.0328,6.998879825,1.518,0,18,18,46,1,479904_sentence_1.wav,5b220a2738fc0c0001312cf5,10,si,2022-05-27_15h40.15.095,ratings_exp,2022.1.4,Win32,60.44487427
,,,,,,5.017927581,25.7387,6.94509845,1.2916,0,19,19,13,1,469614_sentence_2.wav,5b220a2738fc0c0001312cf5,10,si,2022-05-27_15h40.15.095,ratings_exp,2022.1.4,Win32,60.44487427
,,,,,,2.992156726,13.0536,3.960224226,2.5887,0,20,20,4,1,469495_sentence_1.wav,5b220a2738fc0c0001312cf5,10,si,2022-05-27_15h40.15.095,ratings_exp,2022.1.4,Win32,60.44487427
,,,,,,6.003921979,13.4193,4.937255176,3.7778,0,21,21,49,1,480419_sentence_2.wav,5b220a2738fc0c0001312cf5,10,si,2022-05-27_15h40.15.095,ratings_exp,2022.1.4,Win32,60.44487427
,,,,,,5.035854479,10.9391,4.946218624,5.0271,0,22,22,12,1,469614_sentence_1.wav,5b220a2738fc0c0001312cf5,10,si,2022-05-27_15h40.15.095,ratings_exp,2022.1.4,Win32,60.44487427
,,,,,,2.929411901,10.1542,6.989916377,1.3626,0,23,23,23,1,469865_sentence_2.wav,5b220a2738fc0c0001312cf5,10,si,2022-05-27_15h40.15.095,ratings_exp,2022.1.4,Win32,60.44487427
,,,,,,4.014005602,7.1092,8.011765253,1.0429,0,24,24,25,1,469875_sentence_2.wav,5b220a2738fc0c0001312cf5,10,si,2022-05-27_15h40.15.095,ratings_exp,2022.1.4,Win32,60.44487427
,,,,,,1,8.4473,3.960224226,1.6516,0,25,25,5,1,469495_sentence_2.wav,5b220a2738fc0c0001312cf5,10,si,2022-05-27_15h40.15.095,ratings_exp,2022.1.4,Win32,60.44487427
,,,,,,2.068907495,10.2592,7.949020428,1.2879,0,26,26,19,1,469737_sentence_2.wav,5b220a2738fc0c0001312cf5,10,si,2022-05-27_15h40.15.095,ratings_exp,2022.1.4,Win32,60.44487427
,,,,,,4.022969051,8.1096,9,1.3087,0,27,27,3,1,469440_sentence_2.wav,5b220a2738fc0c0001312cf5,10,si,2022-05-27_15h40.15.095,ratings_exp,2022.1.4,Win32,60.44487427
,,,,,,2.93837535,6.7273,9,0.9922,0,28,28,16,1,469639_sentence_1.wav,5b220a2738fc0c0001312cf5,10,si,2022-05-27_15h40.15.095,ratings_exp,2022.1.4,Win32,60.44487427
,,,,,,4.973109654,8.5423,8.970868621,1.4914,0,29,29,0,1,469431_sentence_1.wav,5b220a2738fc0c0001312cf5,10,si,2022-05-27_15h40.15.095,ratings_exp,2022.1.4,Win32,60.44487427
,,,,,,1.029131721,3.8551,3.054902234,1.0428,0,30,30,58,1,484549_sentence_1.wav,5b220a2738fc0c0001312cf5,10,si,2022-05-27_15h40.15.095,ratings_exp,2022.1.4,Win32,60.44487427
,,,,,,7.007843274,7.4912,8.970868621,1.0257,0,31,31,77,1,488322_sentence_2.wav,5b220a2738fc0c0001312cf5,10,si,2022-05-27_15h40.15.095,ratings_exp,2022.1.4,Win32,60.44487427
,,,,,,3.987115256,7.5235,7.097479128,1.0433,0,32,32,6,1,469553_sentence_1.wav,5b220a2738fc0c0001312cf5,10,si,2022-05-27_15h40.15.095,ratings_exp,2022.1.4,Win32,60.44487427
,,,,,,4.014005602,21.7761,4.946218624,0.9592,0,33,33,54,1,484271_sentence_1.wav,5b220a2738fc0c0001312cf5,10,si,2022-05-27_15h40.15.095,ratings_exp,2022.1.4,Win32,60.44487427
,,,,,,2.015126119,9.4416,3.987115256,1.0742,0,34,34,65,1,485507_sentence_2.wav,5b220a2738fc0c0001312cf5,10,si,2022-05-27_15h40.15.095,ratings_exp,2022.1.4,Win32,60.44487427
,,,,,,3.08179258,7.3428,3.861624923,0.91,0,35,35,52,1,481962_sentence_1.wav,5b220a2738fc0c0001312cf5,10,si,2022-05-27_15h40.15.095,ratings_exp,2022.1.4,Win32,60.44487427
,,,,,,3.036974653,33.8576,4.139495935,3.2518,0,36,36,59,1,484549_sentence_2.wav,5b220a2738fc0c0001312cf5,10,si,2022-05-27_15h40.15.095,ratings_exp,2022.1.4,Win32,60.44487427
,,,,,,1.002241033,7.7579,3.028011204,1.0043,0,37,37,73,1,487696_sentence_2.wav,5b220a2738fc0c0001312cf5,10,si,2022-05-27_15h40.15.095,ratings_exp,2022.1.4,Win32,60.44487427
,,,,,,7.931092163,8.7293,9,0.9733,0,38,38,2,1,469440_sentence_1.wav,5b220a2738fc0c0001312cf5,10,si,2022-05-27_15h40.15.095,ratings_exp,2022.1.4,Win32,60.44487427
,,,,,,5.977030949,10.7749,6.954061898,1.6555,0,39,39,1,1,469431_sentence_2.wav,5b220a2738fc0c0001312cf5,10,si,2022-05-27_15h40.15.095,ratings_exp,2022.1.4,Win32,60.44487427
,,,,,,2.983193277,7.681,2.059944046,1.1867,0,40,40,14,1,469635_sentence_1.wav,5b220a2738fc0c0001312cf5,10,si,2022-05-27_15h40.15.095,ratings_exp,2022.1.4,Win32,60.44487427
,,,,,,3.117647059,9.7739,3.942297329,1.141,0,41,41,37,1,472263_sentence_2.wav,5b220a2738fc0c0001312cf5,10,si,2022-05-27_15h40.15.095,ratings_exp,2022.1.4,Win32,60.44487427
,,,,,,1.056022409,6.4755,1.970308192,1.0105,0,42,42,47,1,479904_sentence_2.wav,5b220a2738fc0c0001312cf5,10,si,2022-05-27_15h40.15.095,ratings_exp,2022.1.4,Win32,60.44487427
,,,,,,1.0649862,9.0084,3.054902234,1.0074,0,43,43,17,1,469639_sentence_2.wav,5b220a2738fc0c0001312cf5,10,si,2022-05-27_15h40.15.095,ratings_exp,2022.1.4,Win32,60.44487427
,,,,,,8.952941724,9.8408,8.952941724,0.9414,0,44,44,68,1,485605_sentence_1.wav,5b220a2738fc0c0001312cf5,10,si,2022-05-27_15h40.15.095,ratings_exp,2022.1.4,Win32,60.44487427
,,,,,,1,9.5724,1.109804127,2.0586,0,45,45,55,1,484271_sentence_2.wav,5b220a2738fc0c0001312cf5,10,si,2022-05-27_15h40.15.095,ratings_exp,2022.1.4,Win32,60.44487427
,,,,,,7.966947326,8.6432,7.940056296,1.107,0,46,46,76,1,488322_sentence_1.wav,5b220a2738fc0c0001312cf5,10,si,2022-05-27_15h40.15.095,ratings_exp,2022.1.4,Win32,60.44487427
,,,,,,1.082913097,4.8474,3.897479402,1.0058,0,47,47,41,1,475707_sentence_2.wav,5b220a2738fc0c0001312cf5,10,si,2022-05-27_15h40.15.095,ratings_exp,2022.1.4,Win32,60.44487427
,,,,,,1.988235431,7.21,4.094678008,1.277,0,48,48,57,1,484457_sentence_2.wav,5b220a2738fc0c0001312cf5,10,si,2022-05-27_15h40.15.095,ratings_exp,2022.1.4,Win32,60.44487427
,,,,,,1,5.7545,5.017927581,1.8791,0,49,49,44,1,479845_sentence_1.wav,5b220a2738fc0c0001312cf5,10,si,2022-05-27_15h40.15.095,ratings_exp,2022.1.4,Win32,60.44487427
,,,,,,1.961344743,13.422,2.929411901,1.4552,0,50,50,42,1,477072_sentence_1.wav,5b220a2738fc0c0001312cf5,10,si,2022-05-27_15h40.15.095,ratings_exp,2022.1.4,Win32,60.44487427
,,,,,,1,4.0174,4.049860081,1.3216,0,51,51,38,1,472268_sentence_1.wav,5b220a2738fc0c0001312cf5,10,si,2022-05-27_15h40.15.095,ratings_exp,2022.1.4,Win32,60.44487427
,,,,,,4.973109654,8.6568,5.035854479,1.4745,0,52,52,63,1,484860_sentence_2.wav,5b220a2738fc0c0001312cf5,10,si,2022-05-27_15h40.15.095,ratings_exp,2022.1.4,Win32,60.44487427
,,,,,,1.970308192,6.0779,4.946218624,1.1096,0,53,53,74,1,487969_sentence_1.wav,5b220a2738fc0c0001312cf5,10,si,2022-05-27_15h40.15.095,ratings_exp,2022.1.4,Win32,60.44487427
,,,,,,1.961344743,9.0262,7.052661201,1.2578,0,54,54,56,1,484457_sentence_1.wav,5b220a2738fc0c0001312cf5,10,si,2022-05-27_15h40.15.095,ratings_exp,2022.1.4,Win32,60.44487427
,,,,,,2.96526638,5.9141,4.937255176,1.2902,0,55,55,21,1,469805_sentence_2.wav,5b220a2738fc0c0001312cf5,10,si,2022-05-27_15h40.15.095,ratings_exp,2022.1.4,Win32,60.44487427
,,,,,,6.91820742,8.0405,9,0.9272,0,56,56,36,1,472263_sentence_1.wav,5b220a2738fc0c0001312cf5,10,si,2022-05-27_15h40.15.095,ratings_exp,2022.1.4,Win32,60.44487427
,,,,,,1.03809517,4.6648,2.992156726,1.2047,0,57,57,8,1,469558_sentence_1.wav,5b220a2738fc0c0001312cf5,10,si,2022-05-27_15h40.15.095,ratings_exp,2022.1.4,Win32,60.44487427
,,,,,,7.115406026,13.2557,7.957983193,1.7561,0,58,58,30,1,470408_sentence_1.wav,5b220a2738fc0c0001312cf5,10,si,2022-05-27_15h40.15.095,ratings_exp,2022.1.4,Win32,60.44487427
,,,,,,3.960224226,8.1252,7.007843274,1.326,0,59,59,72,1,487696_sentence_1.wav,5b220a2738fc0c0001312cf5,10,si,2022-05-27_15h40.15.095,ratings_exp,2022.1.4,Win32,60.44487427
,,,,,,4.991036551,9.378,7.007843274,0.8901,0,60,60,18,1,469737_sentence_1.wav,5b220a2738fc0c0001312cf5,10,si,2022-05-27_15h40.15.095,ratings_exp,2022.1.4,Win32,60.44487427
,,,,,,3.063865683,7.3986,4.973109654,1.1915,0,61,61,69,1,485605_sentence_2.wav,5b220a2738fc0c0001312cf5,10,si,2022-05-27_15h40.15.095,ratings_exp,2022.1.4,Win32,60.44487427
,,,,,,5.080672406,12.6361,5.941176471,0.8944,0,62,62,48,1,480419_sentence_1.wav,5b220a2738fc0c0001312cf5,10,si,2022-05-27_15h40.15.095,ratings_exp,2022.1.4,Win32,60.44487427
,,,,,,1.934453713,9.755,2.974229829,1.6927,0,63,63,7,1,469553_sentence_2.wav,5b220a2738fc0c0001312cf5,10,si,2022-05-27_15h40.15.095,ratings_exp,2022.1.4,Win32,60.44487427
,,,,,,2.024089567,11.056,3.915406299,0.9416,0,64,64,45,1,479845_sentence_2.wav,5b220a2738fc0c0001312cf5,10,si,2022-05-27_15h40.15.095,ratings_exp,2022.1.4,Win32,60.44487427
,,,,,,1.029131721,8.9062,1.020168272,0.9467,0,65,65,34,1,471720_sentence_1.wav,5b220a2738fc0c0001312cf5,10,si,2022-05-27_15h40.15.095,ratings_exp,2022.1.4,Win32,60.44487427
,,,,,,1.020168272,3.7797,3.036974653,1.2744,0,66,66,70,1,485976_sentence_1.wav,5b220a2738fc0c0001312cf5,10,si,2022-05-27_15h40.15.095,ratings_exp,2022.1.4,Win32,60.44487427
,,,,,,6.039775774,6.8101,7.016806723,0.9263,0,67,67,28,1,469909_sentence_1.wav,5b220a2738fc0c0001312cf5,10,si,2022-05-27_15h40.15.095,ratings_exp,2022.1.4,Win32,60.44487427
,,,,,,1,10.0772,1.100840336,1.3367,0,68,68,60,1,484573_sentence_1.wav,5b220a2738fc0c0001312cf5,10,si,2022-05-27_15h40.15.095,ratings_exp,2022.1.4,Win32,60.44487427
,,,,,,4.946218624,9.3404,7.106442577,1.2096,0,69,69,40,1,475707_sentence_1.wav,5b220a2738fc0c0001312cf5,10,si,2022-05-27_15h40.15.095,ratings_exp,2022.1.4,Win32,60.44487427
,,,,,,3.996078705,9.211,3.969187675,1.0699,0,70,70,64,1,485507_sentence_1.wav,5b220a2738fc0c0001312cf5,10,si,2022-05-27_15h40.15.095,ratings_exp,2022.1.4,Win32,60.44487427
,,,,,,1.118767575,6.9753,1.073949648,0.8482,0,71,71,35,1,471720_sentence_2.wav,5b220a2738fc0c0001312cf5,10,si,2022-05-27_15h40.15.095,ratings_exp,2022.1.4,Win32,60.44487427
,,,,,,1.073949648,9.2589,1.925490264,1.6738,0,72,72,43,1,477072_sentence_2.wav,5b220a2738fc0c0001312cf5,10,si,2022-05-27_15h40.15.095,ratings_exp,2022.1.4,Win32,60.44487427
,,,,,,1.082913097,9.1574,2.122689212,1.1965,0,73,73,11,1,469581_sentence_2.wav,5b220a2738fc0c0001312cf5,10,si,2022-05-27_15h40.15.095,ratings_exp,2022.1.4,Win32,60.44487427
,,,,,,3.08179258,4.6143,3.978151124,1.0715,0,74,74,61,1,484573_sentence_2.wav,5b220a2738fc0c0001312cf5,10,si,2022-05-27_15h40.15.095,ratings_exp,2022.1.4,Win32,60.44487427
,,,,,,8.020728018,7.2762,8.05658318,1.8946,0,75,75,20,1,469805_sentence_1.wav,5b220a2738fc0c0001312cf5,10,si,2022-05-27_15h40.15.095,ratings_exp,2022.1.4,Win32,60.44487427
,,,,,,5.941176471,8.7577,7.097479128,1.474,0,76,76,32,1,470901_sentence_1.wav,5b220a2738fc0c0001312cf5,10,si,2022-05-27_15h40.15.095,ratings_exp,2022.1.4,Win32,60.44487427
,,,,,,6.021848876,6.4769,7.966947326,0.8416,0,77,77,33,1,470901_sentence_2.wav,5b220a2738fc0c0001312cf5,10,si,2022-05-27_15h40.15.095,ratings_exp,2022.1.4,Win32,60.44487427
