key_resp.keys,key_resp.rt,eng_proficiency.response,eng_proficiency.rt,eng_proficiency_2.response,eng_proficiency_2.rt,accent_rating.response,accent_rating.rt,accent_rating_2.response,accent_rating_2.rt,trials.thisRepN,trials.thisTrialN,trials.thisN,trials.thisIndex,trials.ran,stim,participant,Cuántos años tenía cuando ud. empezó a aprender el inglés?,Ha enseñado el español cómo seguna lengua?,date,expName,psychopyVersion,OS,frameRate
space,226.2831,2.96875,8.8764,6.989583333,14.106,1.020833333,28.1,1.989583333,13.9259,0,0,0,9,1,469558_sentence_2.wav,5bdf91dbb32fa800012ea282,13,No,2022-05-27_16h23.54.794,ratings_exp,2022.1.4,Win32,60.00960154
,,,,,,5.989583333,14.6594,5,11.7931,0,1,1,48,1,480419_sentence_1.wav,5bdf91dbb32fa800012ea282,13,No,2022-05-27_16h23.54.794,ratings_exp,2022.1.4,Win32,60.00960154
,,,,,,5,12.9033,6,12.6908,0,2,2,36,1,472263_sentence_1.wav,5bdf91dbb32fa800012ea282,13,No,2022-05-27_16h23.54.794,ratings_exp,2022.1.4,Win32,60.00960154
,,,,,,4.927083333,16.0025,5.989583333,10.4165,0,3,3,65,1,485507_sentence_2.wav,5bdf91dbb32fa800012ea282,13,No,2022-05-27_16h23.54.794,ratings_exp,2022.1.4,Win32,60.00960154
,,,,,,3.989583333,13.6069,4.96875,13.2524,0,4,4,41,1,475707_sentence_2.wav,5bdf91dbb32fa800012ea282,13,No,2022-05-27_16h23.54.794,ratings_exp,2022.1.4,Win32,60.00960154
,,,,,,1.0625,14.9864,1,10.5362,0,5,5,51,1,481532_sentence_2.wav,5bdf91dbb32fa800012ea282,13,No,2022-05-27_16h23.54.794,ratings_exp,2022.1.4,Win32,60.00960154
,,,,,,7.03125,15.2984,7.020833333,15.037,0,6,6,20,1,469805_sentence_1.wav,5bdf91dbb32fa800012ea282,13,No,2022-05-27_16h23.54.794,ratings_exp,2022.1.4,Win32,60.00960154
,,,,,,5.979166667,7.3562,5.989583333,5.9345,0,7,7,74,1,487969_sentence_1.wav,5bdf91dbb32fa800012ea282,13,No,2022-05-27_16h23.54.794,ratings_exp,2022.1.4,Win32,60.00960154
,,,,,,6.96875,11.1693,6.989583333,11.824,0,8,8,26,1,469883_sentence_1.wav,5bdf91dbb32fa800012ea282,13,No,2022-05-27_16h23.54.794,ratings_exp,2022.1.4,Win32,60.00960154
,,,,,,5.979166667,9.7405,5.979166667,8.9288,0,9,9,7,1,469553_sentence_2.wav,5bdf91dbb32fa800012ea282,13,No,2022-05-27_16h23.54.794,ratings_exp,2022.1.4,Win32,60.00960154
,,,,,,3.96875,13.4317,5.010416667,11.3269,0,10,10,60,1,484573_sentence_1.wav,5bdf91dbb32fa800012ea282,13,No,2022-05-27_16h23.54.794,ratings_exp,2022.1.4,Win32,60.00960154
,,,,,,5.96875,11.7582,6.041666667,10.9195,0,11,11,63,1,484860_sentence_2.wav,5bdf91dbb32fa800012ea282,13,No,2022-05-27_16h23.54.794,ratings_exp,2022.1.4,Win32,60.00960154
,,,,,,6.0625,12.6554,5.041666667,10.4328,0,12,12,19,1,469737_sentence_2.wav,5bdf91dbb32fa800012ea282,13,No,2022-05-27_16h23.54.794,ratings_exp,2022.1.4,Win32,60.00960154
,,,,,,4.989583333,8.7999,7.072916667,8.4747,0,13,13,14,1,469635_sentence_1.wav,5bdf91dbb32fa800012ea282,13,No,2022-05-27_16h23.54.794,ratings_exp,2022.1.4,Win32,60.00960154
,,,,,,7.010416667,11.1476,5.958333333,14.5944,0,14,14,39,1,472268_sentence_2.wav,5bdf91dbb32fa800012ea282,13,No,2022-05-27_16h23.54.794,ratings_exp,2022.1.4,Win32,60.00960154
,,,,,,7.0625,11.8774,6.958333333,9.1777,0,15,15,46,1,479904_sentence_1.wav,5bdf91dbb32fa800012ea282,13,No,2022-05-27_16h23.54.794,ratings_exp,2022.1.4,Win32,60.00960154
,,,,,,7.979166667,13.9779,8.010416667,13.421,0,16,16,24,1,469875_sentence_1.wav,5bdf91dbb32fa800012ea282,13,No,2022-05-27_16h23.54.794,ratings_exp,2022.1.4,Win32,60.00960154
,,,,,,7.010416667,12.0088,7.03125,8.5872,0,17,17,15,1,469635_sentence_2.wav,5bdf91dbb32fa800012ea282,13,No,2022-05-27_16h23.54.794,ratings_exp,2022.1.4,Win32,60.00960154
,,,,,,1,21.0567,1,9.196,0,18,18,35,1,471720_sentence_2.wav,5bdf91dbb32fa800012ea282,13,No,2022-05-27_16h23.54.794,ratings_exp,2022.1.4,Win32,60.00960154
,,,,,,4,7.6957,3.979166667,4.7632,0,19,19,71,1,485976_sentence_2.wav,5bdf91dbb32fa800012ea282,13,No,2022-05-27_16h23.54.794,ratings_exp,2022.1.4,Win32,60.00960154
,,,,,,2.979166667,8.4777,1.958333333,4.8833,0,20,20,59,1,484549_sentence_2.wav,5bdf91dbb32fa800012ea282,13,No,2022-05-27_16h23.54.794,ratings_exp,2022.1.4,Win32,60.00960154
,,,,,,3.989583333,6.7607,4,5.4239,0,21,21,66,1,485567_sentence_1.wav,5bdf91dbb32fa800012ea282,13,No,2022-05-27_16h23.54.794,ratings_exp,2022.1.4,Win32,60.00960154
,,,,,,5.041666667,12.4942,6.979166667,15.3266,0,22,22,45,1,479845_sentence_2.wav,5bdf91dbb32fa800012ea282,13,No,2022-05-27_16h23.54.794,ratings_exp,2022.1.4,Win32,60.00960154
,,,,,,6.989583333,13.4031,7.052083333,13.5847,0,23,23,77,1,488322_sentence_2.wav,5bdf91dbb32fa800012ea282,13,No,2022-05-27_16h23.54.794,ratings_exp,2022.1.4,Win32,60.00960154
,,,,,,8.052083333,12.5269,8.041666667,8.9081,0,24,24,2,1,469440_sentence_1.wav,5bdf91dbb32fa800012ea282,13,No,2022-05-27_16h23.54.794,ratings_exp,2022.1.4,Win32,60.00960154
,,,,,,4.979166667,12.1191,7.052083333,9.9672,0,25,25,13,1,469614_sentence_2.wav,5bdf91dbb32fa800012ea282,13,No,2022-05-27_16h23.54.794,ratings_exp,2022.1.4,Win32,60.00960154
,,,,,,1.989583333,6.9703,3.020833333,7.1557,0,26,26,10,1,469581_sentence_1.wav,5bdf91dbb32fa800012ea282,13,No,2022-05-27_16h23.54.794,ratings_exp,2022.1.4,Win32,60.00960154
,,,,,,2,9.259,3.020833333,8.7599,0,27,27,61,1,484573_sentence_2.wav,5bdf91dbb32fa800012ea282,13,No,2022-05-27_16h23.54.794,ratings_exp,2022.1.4,Win32,60.00960154
,,,,,,6.052083333,14.2776,7.052083333,4.161,0,28,28,21,1,469805_sentence_2.wav,5bdf91dbb32fa800012ea282,13,No,2022-05-27_16h23.54.794,ratings_exp,2022.1.4,Win32,60.00960154
,,,,,,3,10.5191,4.020833333,9.0967,0,29,29,58,1,484549_sentence_1.wav,5bdf91dbb32fa800012ea282,13,No,2022-05-27_16h23.54.794,ratings_exp,2022.1.4,Win32,60.00960154
,,,,,,7.052083333,9.5771,7.979166667,7.1165,0,30,30,49,1,480419_sentence_2.wav,5bdf91dbb32fa800012ea282,13,No,2022-05-27_16h23.54.794,ratings_exp,2022.1.4,Win32,60.00960154
,,,,,,4.052083333,8.0519,3.072916667,9.0955,0,31,31,50,1,481532_sentence_1.wav,5bdf91dbb32fa800012ea282,13,No,2022-05-27_16h23.54.794,ratings_exp,2022.1.4,Win32,60.00960154
,,,,,,5.052083333,12.1533,4,2.3199,0,32,32,37,1,472263_sentence_2.wav,5bdf91dbb32fa800012ea282,13,No,2022-05-27_16h23.54.794,ratings_exp,2022.1.4,Win32,60.00960154
,,,,,,7.0625,11.7018,7.072916667,9.1793,0,33,33,1,1,469431_sentence_2.wav,5bdf91dbb32fa800012ea282,13,No,2022-05-27_16h23.54.794,ratings_exp,2022.1.4,Win32,60.00960154
,,,,,,2.927083333,8.48,2.96875,11.7648,0,34,34,42,1,477072_sentence_1.wav,5bdf91dbb32fa800012ea282,13,No,2022-05-27_16h23.54.794,ratings_exp,2022.1.4,Win32,60.00960154
,,,,,,5.0625,8.2478,5.927083333,14.6453,0,35,35,12,1,469614_sentence_1.wav,5bdf91dbb32fa800012ea282,13,No,2022-05-27_16h23.54.794,ratings_exp,2022.1.4,Win32,60.00960154
,,,,,,5.989583333,10.4594,6.041666667,2.7982,0,36,36,64,1,485507_sentence_1.wav,5bdf91dbb32fa800012ea282,13,No,2022-05-27_16h23.54.794,ratings_exp,2022.1.4,Win32,60.00960154
,,,,,,2.052083333,4.7108,3.979166667,9.8979,0,37,37,17,1,469639_sentence_2.wav,5bdf91dbb32fa800012ea282,13,No,2022-05-27_16h23.54.794,ratings_exp,2022.1.4,Win32,60.00960154
,,,,,,6.020833333,10.6834,5.072916667,4.0603,0,38,38,6,1,469553_sentence_1.wav,5bdf91dbb32fa800012ea282,13,No,2022-05-27_16h23.54.794,ratings_exp,2022.1.4,Win32,60.00960154
,,,,,,1.96875,6.9609,1.96875,2.1451,0,39,39,11,1,469581_sentence_2.wav,5bdf91dbb32fa800012ea282,13,No,2022-05-27_16h23.54.794,ratings_exp,2022.1.4,Win32,60.00960154
,,,,,,1.90625,5.8547,5.96875,9.1558,0,40,40,70,1,485976_sentence_1.wav,5bdf91dbb32fa800012ea282,13,No,2022-05-27_16h23.54.794,ratings_exp,2022.1.4,Win32,60.00960154
,,,,,,4.010416667,9.5517,6.052083333,16.7919,0,41,41,29,1,469909_sentence_2.wav,5bdf91dbb32fa800012ea282,13,No,2022-05-27_16h23.54.794,ratings_exp,2022.1.4,Win32,60.00960154
,,,,,,7.96875,9.3114,7.947916667,2.6875,0,42,42,27,1,469883_sentence_2.wav,5bdf91dbb32fa800012ea282,13,No,2022-05-27_16h23.54.794,ratings_exp,2022.1.4,Win32,60.00960154
,,,,,,4.989583333,7.9633,5.03125,3.142,0,43,43,52,1,481962_sentence_1.wav,5bdf91dbb32fa800012ea282,13,No,2022-05-27_16h23.54.794,ratings_exp,2022.1.4,Win32,60.00960154
,,,,,,5.020833333,6.9525,6.020833333,10.4923,0,44,44,5,1,469495_sentence_2.wav,5bdf91dbb32fa800012ea282,13,No,2022-05-27_16h23.54.794,ratings_exp,2022.1.4,Win32,60.00960154
,,,,,,3,13.5518,2.989583333,2.327,0,45,45,34,1,471720_sentence_1.wav,5bdf91dbb32fa800012ea282,13,No,2022-05-27_16h23.54.794,ratings_exp,2022.1.4,Win32,60.00960154
,,,,,,4.0625,7.969,7.052083333,2.7994,0,46,46,16,1,469639_sentence_1.wav,5bdf91dbb32fa800012ea282,13,No,2022-05-27_16h23.54.794,ratings_exp,2022.1.4,Win32,60.00960154
,,,,,,5.96875,13.8654,7,2.3363,0,47,47,25,1,469875_sentence_2.wav,5bdf91dbb32fa800012ea282,13,No,2022-05-27_16h23.54.794,ratings_exp,2022.1.4,Win32,60.00960154
,,,,,,1,11.6943,2.104166667,1.2026,0,48,48,55,1,484271_sentence_2.wav,5bdf91dbb32fa800012ea282,13,No,2022-05-27_16h23.54.794,ratings_exp,2022.1.4,Win32,60.00960154
,,,,,,4.041666667,17.2339,5.96875,7.9446,0,49,49,33,1,470901_sentence_2.wav,5bdf91dbb32fa800012ea282,13,No,2022-05-27_16h23.54.794,ratings_exp,2022.1.4,Win32,60.00960154
,,,,,,5.010416667,9.5995,5.010416667,1.6072,0,50,50,53,1,481962_sentence_2.wav,5bdf91dbb32fa800012ea282,13,No,2022-05-27_16h23.54.794,ratings_exp,2022.1.4,Win32,60.00960154
,,,,,,4,7.6813,6.010416667,1.8645,0,51,51,18,1,469737_sentence_1.wav,5bdf91dbb32fa800012ea282,13,No,2022-05-27_16h23.54.794,ratings_exp,2022.1.4,Win32,60.00960154
,,,,,,4.020833333,6.1019,7.020833333,8.6636,0,52,52,69,1,485605_sentence_2.wav,5bdf91dbb32fa800012ea282,13,No,2022-05-27_16h23.54.794,ratings_exp,2022.1.4,Win32,60.00960154
,,,,,,4.927083333,11.4282,7,1.2239,0,53,53,30,1,470408_sentence_1.wav,5bdf91dbb32fa800012ea282,13,No,2022-05-27_16h23.54.794,ratings_exp,2022.1.4,Win32,60.00960154
,,,,,,3.03125,6.9444,5.989583333,5.4154,0,54,54,38,1,472268_sentence_1.wav,5bdf91dbb32fa800012ea282,13,No,2022-05-27_16h23.54.794,ratings_exp,2022.1.4,Win32,60.00960154
,,,,,,4.072916667,14.2138,6.947916667,7.8852,0,55,55,67,1,485567_sentence_2.wav,5bdf91dbb32fa800012ea282,13,No,2022-05-27_16h23.54.794,ratings_exp,2022.1.4,Win32,60.00960154
,,,,,,5.072916667,7.9508,7.052083333,10.2983,0,56,56,31,1,470408_sentence_2.wav,5bdf91dbb32fa800012ea282,13,No,2022-05-27_16h23.54.794,ratings_exp,2022.1.4,Win32,60.00960154
,,,,,,2.947916667,6.1972,4.989583333,10.2184,0,57,57,23,1,469865_sentence_2.wav,5bdf91dbb32fa800012ea282,13,No,2022-05-27_16h23.54.794,ratings_exp,2022.1.4,Win32,60.00960154
,,,,,,1.989583333,12.6446,1.989583333,1.4306,0,58,58,62,1,484860_sentence_1.wav,5bdf91dbb32fa800012ea282,13,No,2022-05-27_16h23.54.794,ratings_exp,2022.1.4,Win32,60.00960154
,,,,,,4.072916667,11.4603,7.020833333,2.5978,0,59,59,68,1,485605_sentence_1.wav,5bdf91dbb32fa800012ea282,13,No,2022-05-27_16h23.54.794,ratings_exp,2022.1.4,Win32,60.00960154
,,,,,,3.041666667,7.4053,4.072916667,2.9651,0,60,60,75,1,487969_sentence_2.wav,5bdf91dbb32fa800012ea282,13,No,2022-05-27_16h23.54.794,ratings_exp,2022.1.4,Win32,60.00960154
,,,,,,2.989583333,10.4818,5.020833333,3.9028,0,61,61,73,1,487696_sentence_2.wav,5bdf91dbb32fa800012ea282,13,No,2022-05-27_16h23.54.794,ratings_exp,2022.1.4,Win32,60.00960154
,,,,,,4,17.8941,6.052083333,1.7251,0,62,62,43,1,477072_sentence_2.wav,5bdf91dbb32fa800012ea282,13,No,2022-05-27_16h23.54.794,ratings_exp,2022.1.4,Win32,60.00960154
,,,,,,5.96875,9.3273,7.96875,2.5243,0,63,63,3,1,469440_sentence_2.wav,5bdf91dbb32fa800012ea282,13,No,2022-05-27_16h23.54.794,ratings_exp,2022.1.4,Win32,60.00960154
,,,,,,4.989583333,14.3631,6.979166667,4.2546,0,64,64,57,1,484457_sentence_2.wav,5bdf91dbb32fa800012ea282,13,No,2022-05-27_16h23.54.794,ratings_exp,2022.1.4,Win32,60.00960154
,,,,,,3.979166667,5.4387,7.0625,1.2577,0,65,65,56,1,484457_sentence_1.wav,5bdf91dbb32fa800012ea282,13,No,2022-05-27_16h23.54.794,ratings_exp,2022.1.4,Win32,60.00960154
,,,,,,5.03125,7.9517,7,7.2074,0,66,66,76,1,488322_sentence_1.wav,5bdf91dbb32fa800012ea282,13,No,2022-05-27_16h23.54.794,ratings_exp,2022.1.4,Win32,60.00960154
,,,,,,2,12.2871,7.020833333,1.1397,0,67,67,8,1,469558_sentence_1.wav,5bdf91dbb32fa800012ea282,13,No,2022-05-27_16h23.54.794,ratings_exp,2022.1.4,Win32,60.00960154
,,,,,,4.041666667,8.9784,6.979166667,0.9918,0,68,68,22,1,469865_sentence_1.wav,5bdf91dbb32fa800012ea282,13,No,2022-05-27_16h23.54.794,ratings_exp,2022.1.4,Win32,60.00960154
,,,,,,4.052083333,11.5773,6.052083333,1.0829,0,69,69,40,1,475707_sentence_1.wav,5bdf91dbb32fa800012ea282,13,No,2022-05-27_16h23.54.794,ratings_exp,2022.1.4,Win32,60.00960154
,,,,,,4.03125,8.1475,7.010416667,11.7776,0,70,70,4,1,469495_sentence_1.wav,5bdf91dbb32fa800012ea282,13,No,2022-05-27_16h23.54.794,ratings_exp,2022.1.4,Win32,60.00960154
,,,,,,1,5.2772,1.020833333,3.2215,0,71,71,54,1,484271_sentence_1.wav,5bdf91dbb32fa800012ea282,13,No,2022-05-27_16h23.54.794,ratings_exp,2022.1.4,Win32,60.00960154
,,,,,,3.020833333,6.4053,6.041666667,12.8866,0,72,72,47,1,479904_sentence_2.wav,5bdf91dbb32fa800012ea282,13,No,2022-05-27_16h23.54.794,ratings_exp,2022.1.4,Win32,60.00960154
,,,,,,4.041666667,10.5759,7.010416667,4.4446,0,73,73,28,1,469909_sentence_1.wav,5bdf91dbb32fa800012ea282,13,No,2022-05-27_16h23.54.794,ratings_exp,2022.1.4,Win32,60.00960154
,,,,,,2.9375,5.1405,5.9375,8.3285,0,74,74,44,1,479845_sentence_1.wav,5bdf91dbb32fa800012ea282,13,No,2022-05-27_16h23.54.794,ratings_exp,2022.1.4,Win32,60.00960154
,,,,,,2.979166667,4.276,7.041666667,5.78,0,75,75,72,1,487696_sentence_1.wav,5bdf91dbb32fa800012ea282,13,No,2022-05-27_16h23.54.794,ratings_exp,2022.1.4,Win32,60.00960154
,,,,,,4.989583333,10.5299,7,2.2654,0,76,76,32,1,470901_sentence_1.wav,5bdf91dbb32fa800012ea282,13,No,2022-05-27_16h23.54.794,ratings_exp,2022.1.4,Win32,60.00960154
,,,,,,4.927083333,10.5252,7.010416667,1.1032,0,77,77,0,1,469431_sentence_1.wav,5bdf91dbb32fa800012ea282,13,No,2022-05-27_16h23.54.794,ratings_exp,2022.1.4,Win32,60.00960154
