key_resp.keys,key_resp.rt,eng_proficiency.response,eng_proficiency.rt,eng_proficiency_2.response,eng_proficiency_2.rt,accent_rating.response,accent_rating.rt,accent_rating_2.response,accent_rating_2.rt,trials.thisRepN,trials.thisTrialN,trials.thisN,trials.thisIndex,trials.ran,stim,participant,Cuántos años tenía cuando ud. empezó a aprender el inglés?,Ha enseñado el español cómo seguna lengua?,date,expName,psychopyVersion,OS,frameRate
space,27.436,3.484375,3.505,7.90625,4.188,3.927083333,11.152,6.958333333,7.32,0,0,0,23,1,469865_sentence_2.wav,5ec5a561c1172f5f55cfb425,6,no,2022-05-27_15h41.48.635,ratings_exp,2022.1.4,Win32,165.0165017
,,,,,,5.989583333,24.456,7.21875,4.688,0,1,1,21,1,469805_sentence_2.wav,5ec5a561c1172f5f55cfb425,6,no,2022-05-27_15h41.48.635,ratings_exp,2022.1.4,Win32,165.0165017
,,,,,,6.114583333,16.624,7.09375,1.475,0,2,2,37,1,472263_sentence_2.wav,5ec5a561c1172f5f55cfb425,6,no,2022-05-27_15h41.48.635,ratings_exp,2022.1.4,Win32,165.0165017
,,,,,,7.979166667,11.424,8.1875,2.396,0,3,3,68,1,485605_sentence_1.wav,5ec5a561c1172f5f55cfb425,6,no,2022-05-27_15h41.48.635,ratings_exp,2022.1.4,Win32,165.0165017
,,,,,,6.010416667,10.476,6.895833333,1.845,0,4,4,49,1,480419_sentence_2.wav,5ec5a561c1172f5f55cfb425,6,no,2022-05-27_15h41.48.635,ratings_exp,2022.1.4,Win32,165.0165017
,,,,,,8.270833333,7.191,7.854166667,2.295,0,5,5,77,1,488322_sentence_2.wav,5ec5a561c1172f5f55cfb425,6,no,2022-05-27_15h41.48.635,ratings_exp,2022.1.4,Win32,165.0165017
,,,,,,5.96875,10.831,7.177083333,1.543,0,6,6,48,1,480419_sentence_1.wav,5ec5a561c1172f5f55cfb425,6,no,2022-05-27_15h41.48.635,ratings_exp,2022.1.4,Win32,165.0165017
,,,,,,3.989583333,18.04,4.9375,1.088,0,7,7,42,1,477072_sentence_1.wav,5ec5a561c1172f5f55cfb425,6,no,2022-05-27_15h41.48.635,ratings_exp,2022.1.4,Win32,165.0165017
,,,,,,4.104166667,14.046,2.9375,0.851,0,8,8,43,1,477072_sentence_2.wav,5ec5a561c1172f5f55cfb425,6,no,2022-05-27_15h41.48.635,ratings_exp,2022.1.4,Win32,165.0165017
,,,,,,5.979166667,8.785,6.15625,2.531,0,9,9,27,1,469883_sentence_2.wav,5ec5a561c1172f5f55cfb425,6,no,2022-05-27_15h41.48.635,ratings_exp,2022.1.4,Win32,165.0165017
,,,,,,7.84375,10.066,7.854166667,3.225,0,10,10,2,1,469440_sentence_1.wav,5ec5a561c1172f5f55cfb425,6,no,2022-05-27_15h41.48.635,ratings_exp,2022.1.4,Win32,165.0165017
,,,,,,2.583333333,8.003,3.979166667,2.324,0,11,11,9,1,469558_sentence_2.wav,5ec5a561c1172f5f55cfb425,6,no,2022-05-27_15h41.48.635,ratings_exp,2022.1.4,Win32,165.0165017
,,,,,,6.020833333,10.245,2.979166667,1.57,0,12,12,64,1,485507_sentence_1.wav,5ec5a561c1172f5f55cfb425,6,no,2022-05-27_15h41.48.635,ratings_exp,2022.1.4,Win32,165.0165017
,,,,,,2.135416667,9.04,6.25,2.276,0,13,13,22,1,469865_sentence_1.wav,5ec5a561c1172f5f55cfb425,6,no,2022-05-27_15h41.48.635,ratings_exp,2022.1.4,Win32,165.0165017
,,,,,,1.020833333,6.1,3.0625,3.827,0,14,14,56,1,484457_sentence_1.wav,5ec5a561c1172f5f55cfb425,6,no,2022-05-27_15h41.48.635,ratings_exp,2022.1.4,Win32,165.0165017
,,,,,,5,17.411,4.020833333,1.542,0,15,15,16,1,469639_sentence_1.wav,5ec5a561c1172f5f55cfb425,6,no,2022-05-27_15h41.48.635,ratings_exp,2022.1.4,Win32,165.0165017
,,,,,,6.947916667,15.538,6.9375,9.12,0,16,16,76,1,488322_sentence_1.wav,5ec5a561c1172f5f55cfb425,6,no,2022-05-27_15h41.48.635,ratings_exp,2022.1.4,Win32,165.0165017
,,,,,,2.072916667,10.062,2.854166667,1.956,0,17,17,70,1,485976_sentence_1.wav,5ec5a561c1172f5f55cfb425,6,no,2022-05-27_15h41.48.635,ratings_exp,2022.1.4,Win32,165.0165017
,,,,,,3.0625,8.765,2.229166667,1.7,0,18,18,34,1,471720_sentence_1.wav,5ec5a561c1172f5f55cfb425,6,no,2022-05-27_15h41.48.635,ratings_exp,2022.1.4,Win32,165.0165017
,,,,,,3.072916667,12.222,2.09375,4.942,0,19,19,75,1,487969_sentence_2.wav,5ec5a561c1172f5f55cfb425,6,no,2022-05-27_15h41.48.635,ratings_exp,2022.1.4,Win32,165.0165017
,,,,,,2.9375,5.882,2.895833333,1.656,0,20,20,69,1,485605_sentence_2.wav,5ec5a561c1172f5f55cfb425,6,no,2022-05-27_15h41.48.635,ratings_exp,2022.1.4,Win32,165.0165017
,,,,,,5.979166667,8.834,4.96875,1.034,0,21,21,11,1,469581_sentence_2.wav,5ec5a561c1172f5f55cfb425,6,no,2022-05-27_15h41.48.635,ratings_exp,2022.1.4,Win32,165.0165017
,,,,,,3.822916667,16.361,5.09375,2.119,0,22,22,17,1,469639_sentence_2.wav,5ec5a561c1172f5f55cfb425,6,no,2022-05-27_15h41.48.635,ratings_exp,2022.1.4,Win32,165.0165017
,,,,,,3.895833333,8.191,2.03125,1.221,0,23,23,35,1,471720_sentence_2.wav,5ec5a561c1172f5f55cfb425,6,no,2022-05-27_15h41.48.635,ratings_exp,2022.1.4,Win32,165.0165017
,,,,,,6.041666667,10.58,5.989583333,2.608,0,24,24,74,1,487969_sentence_1.wav,5ec5a561c1172f5f55cfb425,6,no,2022-05-27_15h41.48.635,ratings_exp,2022.1.4,Win32,165.0165017
,,,,,,1.010416667,11.862,4.03125,1.415,0,25,25,0,1,469431_sentence_1.wav,5ec5a561c1172f5f55cfb425,6,no,2022-05-27_15h41.48.635,ratings_exp,2022.1.4,Win32,165.0165017
,,,,,,6.291666667,15.525,5.947916667,6.163,0,26,26,32,1,470901_sentence_1.wav,5ec5a561c1172f5f55cfb425,6,no,2022-05-27_15h41.48.635,ratings_exp,2022.1.4,Win32,165.0165017
,,,,,,6.96875,13.698,8.010416667,1.029,0,27,27,26,1,469883_sentence_1.wav,5ec5a561c1172f5f55cfb425,6,no,2022-05-27_15h41.48.635,ratings_exp,2022.1.4,Win32,165.0165017
,,,,,,6.958333333,21.191,7.114583333,2.347,0,28,28,24,1,469875_sentence_1.wav,5ec5a561c1172f5f55cfb425,6,no,2022-05-27_15h41.48.635,ratings_exp,2022.1.4,Win32,165.0165017
,,,,,,3.958333333,18.463,1.989583333,9.814,0,29,29,73,1,487696_sentence_2.wav,5ec5a561c1172f5f55cfb425,6,no,2022-05-27_15h41.48.635,ratings_exp,2022.1.4,Win32,165.0165017
,,,,,,4.84375,12.492,4.020833333,6.443,0,30,30,40,1,475707_sentence_1.wav,5ec5a561c1172f5f55cfb425,6,no,2022-05-27_15h41.48.635,ratings_exp,2022.1.4,Win32,165.0165017
,,,,,,6.020833333,14.001,6.979166667,5.306,0,31,31,31,1,470408_sentence_2.wav,5ec5a561c1172f5f55cfb425,6,no,2022-05-27_15h41.48.635,ratings_exp,2022.1.4,Win32,165.0165017
,,,,,,3.927083333,16.008,6.197916667,1.622,0,32,32,41,1,475707_sentence_2.wav,5ec5a561c1172f5f55cfb425,6,no,2022-05-27_15h41.48.635,ratings_exp,2022.1.4,Win32,165.0165017
,,,,,,6.96875,12.347,5.885416667,2.861,0,33,33,53,1,481962_sentence_2.wav,5ec5a561c1172f5f55cfb425,6,no,2022-05-27_15h41.48.635,ratings_exp,2022.1.4,Win32,165.0165017
,,,,,,2.041666667,11.923,4.041666667,1.692,0,34,34,71,1,485976_sentence_2.wav,5ec5a561c1172f5f55cfb425,6,no,2022-05-27_15h41.48.635,ratings_exp,2022.1.4,Win32,165.0165017
,,,,,,1.020833333,10.913,3.125,3.136,0,35,35,60,1,484573_sentence_1.wav,5ec5a561c1172f5f55cfb425,6,no,2022-05-27_15h41.48.635,ratings_exp,2022.1.4,Win32,165.0165017
,,,,,,2.989583333,24.512,4.041666667,1.13,0,36,36,12,1,469614_sentence_1.wav,5ec5a561c1172f5f55cfb425,6,no,2022-05-27_15h41.48.635,ratings_exp,2022.1.4,Win32,165.0165017
,,,,,,2.875,15.586,4,14.83,0,37,37,45,1,479845_sentence_2.wav,5ec5a561c1172f5f55cfb425,6,no,2022-05-27_15h41.48.635,ratings_exp,2022.1.4,Win32,165.0165017
,,,,,,4,22.929,4.9375,5.3,0,38,38,30,1,470408_sentence_1.wav,5ec5a561c1172f5f55cfb425,6,no,2022-05-27_15h41.48.635,ratings_exp,2022.1.4,Win32,165.0165017
,,,,,,3.1875,15.484,2.979166667,8.762,0,39,39,5,1,469495_sentence_2.wav,5ec5a561c1172f5f55cfb425,6,no,2022-05-27_15h41.48.635,ratings_exp,2022.1.4,Win32,165.0165017
,,,,,,1.989583333,10.919,1.75,1.783,0,40,40,47,1,479904_sentence_2.wav,5ec5a561c1172f5f55cfb425,6,no,2022-05-27_15h41.48.635,ratings_exp,2022.1.4,Win32,165.0165017
,,,,,,3.916666667,7.92,5.010416667,1.131,0,41,41,28,1,469909_sentence_1.wav,5ec5a561c1172f5f55cfb425,6,no,2022-05-27_15h41.48.635,ratings_exp,2022.1.4,Win32,165.0165017
,,,,,,1,8.056,1,2.029,0,42,42,55,1,484271_sentence_2.wav,5ec5a561c1172f5f55cfb425,6,no,2022-05-27_15h41.48.635,ratings_exp,2022.1.4,Win32,165.0165017
,,,,,,2.541666667,6.271,3.53125,1.281,0,43,43,14,1,469635_sentence_1.wav,5ec5a561c1172f5f55cfb425,6,no,2022-05-27_15h41.48.635,ratings_exp,2022.1.4,Win32,165.0165017
,,,,,,3.114583333,14.558,3.989583333,1.691,0,44,44,52,1,481962_sentence_1.wav,5ec5a561c1172f5f55cfb425,6,no,2022-05-27_15h41.48.635,ratings_exp,2022.1.4,Win32,165.0165017
,,,,,,3.020833333,7.393,4.90625,1.509,0,45,45,6,1,469553_sentence_1.wav,5ec5a561c1172f5f55cfb425,6,no,2022-05-27_15h41.48.635,ratings_exp,2022.1.4,Win32,165.0165017
,,,,,,3.145833333,17.134,4.041666667,8.429,0,46,46,38,1,472268_sentence_1.wav,5ec5a561c1172f5f55cfb425,6,no,2022-05-27_15h41.48.635,ratings_exp,2022.1.4,Win32,165.0165017
,,,,,,7.427083333,7.621,7.875,2.174,0,47,47,46,1,479904_sentence_1.wav,5ec5a561c1172f5f55cfb425,6,no,2022-05-27_15h41.48.635,ratings_exp,2022.1.4,Win32,165.0165017
,,,,,,1.03125,14.893,1.9375,4.603,0,48,48,8,1,469558_sentence_1.wav,5ec5a561c1172f5f55cfb425,6,no,2022-05-27_15h41.48.635,ratings_exp,2022.1.4,Win32,165.0165017
,,,,,,1.9375,10.881,2.041666667,8.555,0,49,49,67,1,485567_sentence_2.wav,5ec5a561c1172f5f55cfb425,6,no,2022-05-27_15h41.48.635,ratings_exp,2022.1.4,Win32,165.0165017
,,,,,,2.885416667,5.342,3,1.281,0,50,50,7,1,469553_sentence_2.wav,5ec5a561c1172f5f55cfb425,6,no,2022-05-27_15h41.48.635,ratings_exp,2022.1.4,Win32,165.0165017
,,,,,,2.96875,6.416,3.677083333,1.004,0,51,51,66,1,485567_sentence_1.wav,5ec5a561c1172f5f55cfb425,6,no,2022-05-27_15h41.48.635,ratings_exp,2022.1.4,Win32,165.0165017
,,,,,,1.96875,11.258,2.697916667,1.974,0,52,52,39,1,472268_sentence_2.wav,5ec5a561c1172f5f55cfb425,6,no,2022-05-27_15h41.48.635,ratings_exp,2022.1.4,Win32,165.0165017
,,,,,,2.75,22.506,4.916666667,1.073,0,53,53,63,1,484860_sentence_2.wav,5ec5a561c1172f5f55cfb425,6,no,2022-05-27_15h41.48.635,ratings_exp,2022.1.4,Win32,165.0165017
,,,,,,3.020833333,9.817,5.927083333,0.978,0,54,54,19,1,469737_sentence_2.wav,5ec5a561c1172f5f55cfb425,6,no,2022-05-27_15h41.48.635,ratings_exp,2022.1.4,Win32,165.0165017
,,,,,,3.03125,9.002,4.90625,1.3,0,55,55,3,1,469440_sentence_2.wav,5ec5a561c1172f5f55cfb425,6,no,2022-05-27_15h41.48.635,ratings_exp,2022.1.4,Win32,165.0165017
,,,,,,2.010416667,12.575,6.145833333,1.858,0,56,56,25,1,469875_sentence_2.wav,5ec5a561c1172f5f55cfb425,6,no,2022-05-27_15h41.48.635,ratings_exp,2022.1.4,Win32,165.0165017
,,,,,,5.916666667,9.887,1.9375,2.287,0,57,57,33,1,470901_sentence_2.wav,5ec5a561c1172f5f55cfb425,6,no,2022-05-27_15h41.48.635,ratings_exp,2022.1.4,Win32,165.0165017
,,,,,,1.666666667,6.233,1,1.02,0,58,58,15,1,469635_sentence_2.wav,5ec5a561c1172f5f55cfb425,6,no,2022-05-27_15h41.48.635,ratings_exp,2022.1.4,Win32,165.0165017
,,,,,,2.21875,19.203,3.604166667,1.137,0,59,59,13,1,469614_sentence_2.wav,5ec5a561c1172f5f55cfb425,6,no,2022-05-27_15h41.48.635,ratings_exp,2022.1.4,Win32,165.0165017
,,,,,,1.59375,11.173,1.135416667,1.125,0,60,60,62,1,484860_sentence_1.wav,5ec5a561c1172f5f55cfb425,6,no,2022-05-27_15h41.48.635,ratings_exp,2022.1.4,Win32,165.0165017
,,,,,,1.866666667,10.536,1.733333333,4.017,0,61,61,44,1,479845_sentence_1.wav,5ec5a561c1172f5f55cfb425,6,no,2022-05-27_15h41.48.635,ratings_exp,2022.1.4,Win32,165.0165017
,,,,,,4.916666667,8.335,8.208333333,1.735,0,62,62,18,1,469737_sentence_1.wav,5ec5a561c1172f5f55cfb425,6,no,2022-05-27_15h41.48.635,ratings_exp,2022.1.4,Win32,165.0165017
,,,,,,2.5,26.362,2.895833333,1.768,0,63,63,20,1,469805_sentence_1.wav,5ec5a561c1172f5f55cfb425,6,no,2022-05-27_15h41.48.635,ratings_exp,2022.1.4,Win32,165.0165017
,,,,,,1.385416667,5.468,1.78125,0.955,0,64,64,50,1,481532_sentence_1.wav,5ec5a561c1172f5f55cfb425,6,no,2022-05-27_15h41.48.635,ratings_exp,2022.1.4,Win32,165.0165017
,,,,,,1.739583333,7.015,3.135416667,1.664,0,65,65,10,1,469581_sentence_1.wav,5ec5a561c1172f5f55cfb425,6,no,2022-05-27_15h41.48.635,ratings_exp,2022.1.4,Win32,165.0165017
,,,,,,1.78125,8.215,2.010416667,0.961,0,66,66,4,1,469495_sentence_1.wav,5ec5a561c1172f5f55cfb425,6,no,2022-05-27_15h41.48.635,ratings_exp,2022.1.4,Win32,165.0165017
,,,,,,1.010416667,8.544,3.364583333,1.016,0,67,67,57,1,484457_sentence_2.wav,5ec5a561c1172f5f55cfb425,6,no,2022-05-27_15h41.48.635,ratings_exp,2022.1.4,Win32,165.0165017
,,,,,,2.3125,10.64,2.802083333,5.179,0,68,68,36,1,472263_sentence_1.wav,5ec5a561c1172f5f55cfb425,6,no,2022-05-27_15h41.48.635,ratings_exp,2022.1.4,Win32,165.0165017
,,,,,,1,9.18,3.375,0.93,0,69,69,1,1,469431_sentence_2.wav,5ec5a561c1172f5f55cfb425,6,no,2022-05-27_15h41.48.635,ratings_exp,2022.1.4,Win32,165.0165017
,,,,,,3.03125,17.789,3.947916667,0.998,0,70,70,29,1,469909_sentence_2.wav,5ec5a561c1172f5f55cfb425,6,no,2022-05-27_15h41.48.635,ratings_exp,2022.1.4,Win32,165.0165017
,,,,,,2.302083333,8.222,4.958333333,2.015,0,71,71,72,1,487696_sentence_1.wav,5ec5a561c1172f5f55cfb425,6,no,2022-05-27_15h41.48.635,ratings_exp,2022.1.4,Win32,165.0165017
,,,,,,1.052083333,10.106,1.958333333,1.657,0,72,72,61,1,484573_sentence_2.wav,5ec5a561c1172f5f55cfb425,6,no,2022-05-27_15h41.48.635,ratings_exp,2022.1.4,Win32,165.0165017
,,,,,,1,7.479,1,0.922,0,73,73,58,1,484549_sentence_1.wav,5ec5a561c1172f5f55cfb425,6,no,2022-05-27_15h41.48.635,ratings_exp,2022.1.4,Win32,165.0165017
,,,,,,2.125,17.367,1.677083333,10.335,0,74,74,65,1,485507_sentence_2.wav,5ec5a561c1172f5f55cfb425,6,no,2022-05-27_15h41.48.635,ratings_exp,2022.1.4,Win32,165.0165017
,,,,,,1.21875,1.81,1.041666667,4.112,0,75,75,54,1,484271_sentence_1.wav,5ec5a561c1172f5f55cfb425,6,no,2022-05-27_15h41.48.635,ratings_exp,2022.1.4,Win32,165.0165017
,,,,,,1.416666667,6.361,1.416666667,1.015,0,76,76,59,1,484549_sentence_2.wav,5ec5a561c1172f5f55cfb425,6,no,2022-05-27_15h41.48.635,ratings_exp,2022.1.4,Win32,165.0165017
,,,,,,1.260416667,11.215,1,2.56,0,77,77,51,1,481532_sentence_2.wav,5ec5a561c1172f5f55cfb425,6,no,2022-05-27_15h41.48.635,ratings_exp,2022.1.4,Win32,165.0165017
