key_resp.keys,key_resp.rt,eng_proficiency.response,eng_proficiency.rt,eng_proficiency_2.response,eng_proficiency_2.rt,accent_rating.response,accent_rating.rt,accent_rating_2.response,accent_rating_2.rt,trials.thisRepN,trials.thisTrialN,trials.thisN,trials.thisIndex,trials.ran,stim,participant,Cuántos años tenía cuando ud. empezó a aprender el inglés?,Ha enseñado el español cómo seguna lengua?,date,expName,psychopyVersion,OS,frameRate
space,28.2341,1.925,9.9943,5.02962963,4.7391,1.088888889,16.2117,1.02962963,6.9688,0,0,0,35,1,471720_sentence_2.wav,5ed3e885034557397f017ef0,12,si,2022-05-27_14h38.15.922,ratings_exp,2022.1.4,Win32,59.97720866
,,,,,,3.985185185,10.6788,4.992592593,2.7013,0,1,1,7,1,469553_sentence_2.wav,5ed3e885034557397f017ef0,12,si,2022-05-27_14h38.15.922,ratings_exp,2022.1.4,Win32,59.97720866
,,,,,,6.992592593,15.5904,8.977777778,8.2719,0,2,2,31,1,470408_sentence_2.wav,5ed3e885034557397f017ef0,12,si,2022-05-27_14h38.15.922,ratings_exp,2022.1.4,Win32,59.97720866
,,,,,,5,21.3107,7.97037037,10.4305,0,3,3,61,1,484573_sentence_2.wav,5ed3e885034557397f017ef0,12,si,2022-05-27_14h38.15.922,ratings_exp,2022.1.4,Win32,59.97720866
,,,,,,6.022222222,16.3019,7.97037037,13.0342,0,4,4,36,1,472263_sentence_1.wav,5ed3e885034557397f017ef0,12,si,2022-05-27_14h38.15.922,ratings_exp,2022.1.4,Win32,59.97720866
,,,,,,8.007407407,14.0216,8.925925926,11.9529,0,5,5,26,1,469883_sentence_1.wav,5ed3e885034557397f017ef0,12,si,2022-05-27_14h38.15.922,ratings_exp,2022.1.4,Win32,59.97720866
,,,,,,5,18.85,6,2.6109,0,6,6,68,1,485605_sentence_1.wav,5ed3e885034557397f017ef0,12,si,2022-05-27_14h38.15.922,ratings_exp,2022.1.4,Win32,59.97720866
,,,,,,6,17.7653,8,10.1268,0,7,7,64,1,485507_sentence_1.wav,5ed3e885034557397f017ef0,12,si,2022-05-27_14h38.15.922,ratings_exp,2022.1.4,Win32,59.97720866
,,,,,,5.948148148,11.2024,5.103703704,17.4401,0,8,8,17,1,469639_sentence_2.wav,5ed3e885034557397f017ef0,12,si,2022-05-27_14h38.15.922,ratings_exp,2022.1.4,Win32,59.97720866
,,,,,,5.837037037,11.0334,5.866666667,2.1431,0,9,9,73,1,487696_sentence_2.wav,5ed3e885034557397f017ef0,12,si,2022-05-27_14h38.15.922,ratings_exp,2022.1.4,Win32,59.97720866
,,,,,,7.059259259,14.4477,7.977777778,7.5687,0,10,10,77,1,488322_sentence_2.wav,5ed3e885034557397f017ef0,12,si,2022-05-27_14h38.15.922,ratings_exp,2022.1.4,Win32,59.97720866
,,,,,,7.081481481,14.8507,6.97037037,13.6292,0,11,11,37,1,472263_sentence_2.wav,5ed3e885034557397f017ef0,12,si,2022-05-27_14h38.15.922,ratings_exp,2022.1.4,Win32,59.97720866
,,,,,,5.748148148,16.0106,7.118518519,15.1536,0,12,12,42,1,477072_sentence_1.wav,5ed3e885034557397f017ef0,12,si,2022-05-27_14h38.15.922,ratings_exp,2022.1.4,Win32,59.97720866
,,,,,,3.637037037,13.4296,5.214814815,5.7459,0,13,13,59,1,484549_sentence_2.wav,5ed3e885034557397f017ef0,12,si,2022-05-27_14h38.15.922,ratings_exp,2022.1.4,Win32,59.97720866
,,,,,,7.814814815,8.2523,8.022222222,7.4767,0,14,14,66,1,485567_sentence_1.wav,5ed3e885034557397f017ef0,12,si,2022-05-27_14h38.15.922,ratings_exp,2022.1.4,Win32,59.97720866
,,,,,,8.903703704,10.25,8.933333333,4.3107,0,15,15,32,1,470901_sentence_1.wav,5ed3e885034557397f017ef0,12,si,2022-05-27_14h38.15.922,ratings_exp,2022.1.4,Win32,59.97720866
,,,,,,4.459259259,14.7474,4.918518519,1.7958,0,16,16,60,1,484573_sentence_1.wav,5ed3e885034557397f017ef0,12,si,2022-05-27_14h38.15.922,ratings_exp,2022.1.4,Win32,59.97720866
,,,,,,5.133333333,14.0403,5.281481481,1.8858,0,17,17,15,1,469635_sentence_2.wav,5ed3e885034557397f017ef0,12,si,2022-05-27_14h38.15.922,ratings_exp,2022.1.4,Win32,59.97720866
,,,,,,6.940740741,15.7435,6.948148148,1.2463,0,18,18,9,1,469558_sentence_2.wav,5ed3e885034557397f017ef0,12,si,2022-05-27_14h38.15.922,ratings_exp,2022.1.4,Win32,59.97720866
,,,,,,6.125925926,14.6,6.214814815,2.0705,0,19,19,39,1,472268_sentence_2.wav,5ed3e885034557397f017ef0,12,si,2022-05-27_14h38.15.922,ratings_exp,2022.1.4,Win32,59.97720866
,,,,,,7.311111111,30.319,8.02962963,3.2411,0,20,20,19,1,469737_sentence_2.wav,5ed3e885034557397f017ef0,12,si,2022-05-27_14h38.15.922,ratings_exp,2022.1.4,Win32,59.97720866
,,,,,,7.592592593,19.465,7.688888889,3.3491,0,21,21,46,1,479904_sentence_1.wav,5ed3e885034557397f017ef0,12,si,2022-05-27_14h38.15.922,ratings_exp,2022.1.4,Win32,59.97720866
,,,,,,5.481481481,11.2507,6.148148148,3.0854,0,22,22,67,1,485567_sentence_2.wav,5ed3e885034557397f017ef0,12,si,2022-05-27_14h38.15.922,ratings_exp,2022.1.4,Win32,59.97720866
,,,,,,8.725925926,8.4359,8.933333333,5.1616,0,23,23,76,1,488322_sentence_1.wav,5ed3e885034557397f017ef0,12,si,2022-05-27_14h38.15.922,ratings_exp,2022.1.4,Win32,59.97720866
,,,,,,7.851851852,12.8717,8.451851852,2.7173,0,24,24,57,1,484457_sentence_2.wav,5ed3e885034557397f017ef0,12,si,2022-05-27_14h38.15.922,ratings_exp,2022.1.4,Win32,59.97720866
,,,,,,6.148148148,9.5202,6.148148148,1.2474,0,25,25,5,1,469495_sentence_2.wav,5ed3e885034557397f017ef0,12,si,2022-05-27_14h38.15.922,ratings_exp,2022.1.4,Win32,59.97720866
,,,,,,5.037037037,6.6586,5.037037037,1.5289,0,26,26,8,1,469558_sentence_1.wav,5ed3e885034557397f017ef0,12,si,2022-05-27_14h38.15.922,ratings_exp,2022.1.4,Win32,59.97720866
,,,,,,5.059259259,5.7214,5.111111111,3.6129,0,27,27,51,1,481532_sentence_2.wav,5ed3e885034557397f017ef0,12,si,2022-05-27_14h38.15.922,ratings_exp,2022.1.4,Win32,59.97720866
,,,,,,6.703703704,12.152,7.118518519,1.6731,0,28,28,69,1,485605_sentence_2.wav,5ed3e885034557397f017ef0,12,si,2022-05-27_14h38.15.922,ratings_exp,2022.1.4,Win32,59.97720866
,,,,,,7.118518519,9.6803,8.037037037,2.9581,0,29,29,14,1,469635_sentence_1.wav,5ed3e885034557397f017ef0,12,si,2022-05-27_14h38.15.922,ratings_exp,2022.1.4,Win32,59.97720866
,,,,,,7.911111111,11.6004,7.948148148,1.4167,0,30,30,6,1,469553_sentence_1.wav,5ed3e885034557397f017ef0,12,si,2022-05-27_14h38.15.922,ratings_exp,2022.1.4,Win32,59.97720866
,,,,,,7.555555556,13.5512,7.533333333,5.1575,0,31,31,21,1,469805_sentence_2.wav,5ed3e885034557397f017ef0,12,si,2022-05-27_14h38.15.922,ratings_exp,2022.1.4,Win32,59.97720866
,,,,,,6.755555556,13.7526,7.125925926,47.5468,0,32,32,48,1,480419_sentence_1.wav,5ed3e885034557397f017ef0,12,si,2022-05-27_14h38.15.922,ratings_exp,2022.1.4,Win32,59.97720866
,,,,,,7.533333333,1.3805,6.940740741,10.8995,0,33,33,63,1,484860_sentence_2.wav,5ed3e885034557397f017ef0,12,si,2022-05-27_14h38.15.922,ratings_exp,2022.1.4,Win32,59.97720866
,,,,,,6.325925926,9.8945,6.325925926,3.1667,0,34,34,10,1,469581_sentence_1.wav,5ed3e885034557397f017ef0,12,si,2022-05-27_14h38.15.922,ratings_exp,2022.1.4,Win32,59.97720866
,,,,,,2.125925926,8.0443,2.125925926,2.153,0,35,35,55,1,484271_sentence_2.wav,5ed3e885034557397f017ef0,12,si,2022-05-27_14h38.15.922,ratings_exp,2022.1.4,Win32,59.97720866
,,,,,,8.948148148,18.5339,8.962962963,2.7491,0,36,36,12,1,469614_sentence_1.wav,5ed3e885034557397f017ef0,12,si,2022-05-27_14h38.15.922,ratings_exp,2022.1.4,Win32,59.97720866
,,,,,,7.325925926,8.6484,7.444444444,2.2746,0,37,37,20,1,469805_sentence_1.wav,5ed3e885034557397f017ef0,12,si,2022-05-27_14h38.15.922,ratings_exp,2022.1.4,Win32,59.97720866
,,,,,,1.762962963,5.3616,1.651851852,6.3479,0,38,38,54,1,484271_sentence_1.wav,5ed3e885034557397f017ef0,12,si,2022-05-27_14h38.15.922,ratings_exp,2022.1.4,Win32,59.97720866
,,,,,,6.096296296,15.172,6.096296296,1.1575,0,39,39,4,1,469495_sentence_1.wav,5ed3e885034557397f017ef0,12,si,2022-05-27_14h38.15.922,ratings_exp,2022.1.4,Win32,59.97720866
,,,,,,7.614814815,9.0045,8.037037037,1.8315,0,40,40,18,1,469737_sentence_1.wav,5ed3e885034557397f017ef0,12,si,2022-05-27_14h38.15.922,ratings_exp,2022.1.4,Win32,59.97720866
,,,,,,7.562962963,14.3969,7.822222222,1.2639,0,41,41,45,1,479845_sentence_2.wav,5ed3e885034557397f017ef0,12,si,2022-05-27_14h38.15.922,ratings_exp,2022.1.4,Win32,59.97720866
,,,,,,3.644444444,6.8002,3.992592593,2.3976,0,42,42,74,1,487969_sentence_1.wav,5ed3e885034557397f017ef0,12,si,2022-05-27_14h38.15.922,ratings_exp,2022.1.4,Win32,59.97720866
,,,,,,5.97037037,9.9497,5.97037037,2.0719,0,43,43,50,1,481532_sentence_1.wav,5ed3e885034557397f017ef0,12,si,2022-05-27_14h38.15.922,ratings_exp,2022.1.4,Win32,59.97720866
,,,,,,8.955555556,14.864,8.962962963,2.5502,0,44,44,13,1,469614_sentence_2.wav,5ed3e885034557397f017ef0,12,si,2022-05-27_14h38.15.922,ratings_exp,2022.1.4,Win32,59.97720866
,,,,,,6.644444444,8.721,6.762962963,1.3944,0,45,45,75,1,487969_sentence_2.wav,5ed3e885034557397f017ef0,12,si,2022-05-27_14h38.15.922,ratings_exp,2022.1.4,Win32,59.97720866
,,,,,,6.607407407,6.1433,6.607407407,2.5186,0,46,46,1,1,469431_sentence_2.wav,5ed3e885034557397f017ef0,12,si,2022-05-27_14h38.15.922,ratings_exp,2022.1.4,Win32,59.97720866
,,,,,,6.311111111,16.0795,6.311111111,2.0678,0,47,47,11,1,469581_sentence_2.wav,5ed3e885034557397f017ef0,12,si,2022-05-27_14h38.15.922,ratings_exp,2022.1.4,Win32,59.97720866
,,,,,,7.659259259,11.2638,7.562962963,1.633,0,48,48,0,1,469431_sentence_1.wav,5ed3e885034557397f017ef0,12,si,2022-05-27_14h38.15.922,ratings_exp,2022.1.4,Win32,59.97720866
,,,,,,7.977777778,8.6394,7.977777778,1.9798,0,49,49,16,1,469639_sentence_1.wav,5ed3e885034557397f017ef0,12,si,2022-05-27_14h38.15.922,ratings_exp,2022.1.4,Win32,59.97720866
,,,,,,7.2,28.5064,7.325925926,52.2764,0,50,50,49,1,480419_sentence_2.wav,5ed3e885034557397f017ef0,12,si,2022-05-27_14h38.15.922,ratings_exp,2022.1.4,Win32,59.97720866
,,,,,,6.837037037,10.4714,6.837037037,2.226,0,51,51,41,1,475707_sentence_2.wav,5ed3e885034557397f017ef0,12,si,2022-05-27_14h38.15.922,ratings_exp,2022.1.4,Win32,59.97720866
,,,,,,7.696296296,9.0411,7.918518519,1.2557,0,52,52,24,1,469875_sentence_1.wav,5ed3e885034557397f017ef0,12,si,2022-05-27_14h38.15.922,ratings_exp,2022.1.4,Win32,59.97720866
,,,,,,6.125925926,11.2728,6.274074074,4.3258,0,53,53,58,1,484549_sentence_1.wav,5ed3e885034557397f017ef0,12,si,2022-05-27_14h38.15.922,ratings_exp,2022.1.4,Win32,59.97720866
,,,,,,6.318518519,3.234,6.318518519,9.7408,0,54,54,38,1,472268_sentence_1.wav,5ed3e885034557397f017ef0,12,si,2022-05-27_14h38.15.922,ratings_exp,2022.1.4,Win32,59.97720866
,,,,,,6.955555556,36.404,6.955555556,3.8069,0,55,55,34,1,471720_sentence_1.wav,5ed3e885034557397f017ef0,12,si,2022-05-27_14h38.15.922,ratings_exp,2022.1.4,Win32,59.97720866
,,,,,,6.651851852,7.637,6.466666667,1.8504,0,56,56,23,1,469865_sentence_2.wav,5ed3e885034557397f017ef0,12,si,2022-05-27_14h38.15.922,ratings_exp,2022.1.4,Win32,59.97720866
,,,,,,7.148148148,14.2078,7.992592593,2.6271,0,57,57,30,1,470408_sentence_1.wav,5ed3e885034557397f017ef0,12,si,2022-05-27_14h38.15.922,ratings_exp,2022.1.4,Win32,59.97720866
,,,,,,6.948148148,10.4663,6.896296296,10.2627,0,58,58,44,1,479845_sentence_1.wav,5ed3e885034557397f017ef0,12,si,2022-05-27_14h38.15.922,ratings_exp,2022.1.4,Win32,59.97720866
,,,,,,7.237037037,10.3368,7.2,9.2913,0,59,59,72,1,487696_sentence_1.wav,5ed3e885034557397f017ef0,12,si,2022-05-27_14h38.15.922,ratings_exp,2022.1.4,Win32,59.97720866
,,,,,,6.481481481,10.8514,6.518518519,15.9821,0,60,60,62,1,484860_sentence_1.wav,5ed3e885034557397f017ef0,12,si,2022-05-27_14h38.15.922,ratings_exp,2022.1.4,Win32,59.97720866
,,,,,,7.481481481,15.7424,8.362962963,4.2044,0,61,61,29,1,469909_sentence_2.wav,5ed3e885034557397f017ef0,12,si,2022-05-27_14h38.15.922,ratings_exp,2022.1.4,Win32,59.97720866
,,,,,,6.481481481,8.9105,6.511111111,9.7326,0,62,62,47,1,479904_sentence_2.wav,5ed3e885034557397f017ef0,12,si,2022-05-27_14h38.15.922,ratings_exp,2022.1.4,Win32,59.97720866
,,,,,,6.903703704,9.0525,6.903703704,1.0584,0,63,63,56,1,484457_sentence_1.wav,5ed3e885034557397f017ef0,12,si,2022-05-27_14h38.15.922,ratings_exp,2022.1.4,Win32,59.97720866
,,,,,,6.948148148,12.5295,6.77037037,2.1352,0,64,64,65,1,485507_sentence_2.wav,5ed3e885034557397f017ef0,12,si,2022-05-27_14h38.15.922,ratings_exp,2022.1.4,Win32,59.97720866
,,,,,,8.962962963,9.7654,8.962962963,1.0904,0,65,65,27,1,469883_sentence_2.wav,5ed3e885034557397f017ef0,12,si,2022-05-27_14h38.15.922,ratings_exp,2022.1.4,Win32,59.97720866
,,,,,,6.622222222,11.8159,6.681481481,1.3159,0,66,66,71,1,485976_sentence_2.wav,5ed3e885034557397f017ef0,12,si,2022-05-27_14h38.15.922,ratings_exp,2022.1.4,Win32,59.97720866
,,,,,,7.066666667,22.8377,7.014814815,1.0988,0,67,67,2,1,469440_sentence_1.wav,5ed3e885034557397f017ef0,12,si,2022-05-27_14h38.15.922,ratings_exp,2022.1.4,Win32,59.97720866
,,,,,,6.155555556,15.1615,6.148148148,1.1092,0,68,68,43,1,477072_sentence_2.wav,5ed3e885034557397f017ef0,12,si,2022-05-27_14h38.15.922,ratings_exp,2022.1.4,Win32,59.97720866
,,,,,,6.148148148,86.9585,8.022222222,10.149,0,69,69,28,1,469909_sentence_1.wav,5ed3e885034557397f017ef0,12,si,2022-05-27_14h38.15.922,ratings_exp,2022.1.4,Win32,59.97720866
,,,,,,7.918518519,10.4041,7.925925926,1.1985,0,70,70,3,1,469440_sentence_2.wav,5ed3e885034557397f017ef0,12,si,2022-05-27_14h38.15.922,ratings_exp,2022.1.4,Win32,59.97720866
,,,,,,6.37037037,5.7392,6.4,9.7663,0,71,71,53,1,481962_sentence_2.wav,5ed3e885034557397f017ef0,12,si,2022-05-27_14h38.15.922,ratings_exp,2022.1.4,Win32,59.97720866
,,,,,,8.007407407,14.1363,7.888888889,0.9819,0,72,72,33,1,470901_sentence_2.wav,5ed3e885034557397f017ef0,12,si,2022-05-27_14h38.15.922,ratings_exp,2022.1.4,Win32,59.97720866
,,,,,,7.044444444,9.7325,7.548148148,2.1186,0,73,73,22,1,469865_sentence_1.wav,5ed3e885034557397f017ef0,12,si,2022-05-27_14h38.15.922,ratings_exp,2022.1.4,Win32,59.97720866
,,,,,,7.525925926,14.292,6.8,3.0051,0,74,74,52,1,481962_sentence_1.wav,5ed3e885034557397f017ef0,12,si,2022-05-27_14h38.15.922,ratings_exp,2022.1.4,Win32,59.97720866
,,,,,,6.896296296,14.8348,6.948148148,1.0567,0,75,75,40,1,475707_sentence_1.wav,5ed3e885034557397f017ef0,12,si,2022-05-27_14h38.15.922,ratings_exp,2022.1.4,Win32,59.97720866
,,,,,,5.837037037,9.2392,5.962962963,1.2293,0,76,76,70,1,485976_sentence_1.wav,5ed3e885034557397f017ef0,12,si,2022-05-27_14h38.15.922,ratings_exp,2022.1.4,Win32,59.97720866
,,,,,,5.955555556,6.8343,5.955555556,1.5837,0,77,77,25,1,469875_sentence_2.wav,5ed3e885034557397f017ef0,12,si,2022-05-27_14h38.15.922,ratings_exp,2022.1.4,Win32,59.97720866
