key_resp.keys,key_resp.rt,eng_proficiency.response,eng_proficiency.rt,eng_proficiency_2.response,eng_proficiency_2.rt,accent_rating.response,accent_rating.rt,accent_rating_2.response,accent_rating_2.rt,trials.thisRepN,trials.thisTrialN,trials.thisN,trials.thisIndex,trials.ran,stim,participant,Cuántos años tenía cuando ud. empezó a aprender el inglés?,Ha enseñado el español cómo seguna lengua?,date,expName,psychopyVersion,OS,frameRate
space,37.7088,7.00931677,5.2987,7.906832298,4.483,3.01242236,13.6486,3.099378882,9.6435,0,0,0,5,1,469495_sentence_2.wav,5f2b4939dae40959f75f7baf,7,si,2022-05-27_15h41.46.541,ratings_exp,2022.1.4,Win32,60.0348202
,,,,,,1.98136646,10.1668,5.149068323,9.0791,0,1,1,70,1,485976_sentence_1.wav,5f2b4939dae40959f75f7baf,7,si,2022-05-27_15h41.46.541,ratings_exp,2022.1.4,Win32,60.0348202
,,,,,,3.99378882,12.1612,6.98757764,5.6025,0,2,2,57,1,484457_sentence_2.wav,5f2b4939dae40959f75f7baf,7,si,2022-05-27_15h41.46.541,ratings_exp,2022.1.4,Win32,60.0348202
,,,,,,6.98757764,15.3931,8.888198758,4.228,0,3,3,20,1,469805_sentence_1.wav,5f2b4939dae40959f75f7baf,7,si,2022-05-27_15h41.46.541,ratings_exp,2022.1.4,Win32,60.0348202
,,,,,,4.913043478,11.2238,3.881987578,2.5217,0,4,4,53,1,481962_sentence_2.wav,5f2b4939dae40959f75f7baf,7,si,2022-05-27_15h41.46.541,ratings_exp,2022.1.4,Win32,60.0348202
,,,,,,5.01242236,12.0317,7.807453416,10.5447,0,5,5,0,1,469431_sentence_1.wav,5f2b4939dae40959f75f7baf,7,si,2022-05-27_15h41.46.541,ratings_exp,2022.1.4,Win32,60.0348202
,,,,,,6.888198758,11.9352,7.832298137,2.2991,0,6,6,13,1,469614_sentence_2.wav,5f2b4939dae40959f75f7baf,7,si,2022-05-27_15h41.46.541,ratings_exp,2022.1.4,Win32,60.0348202
,,,,,,1.074534161,13.8907,1.968944099,5.0605,0,7,7,54,1,484271_sentence_1.wav,5f2b4939dae40959f75f7baf,7,si,2022-05-27_15h41.46.541,ratings_exp,2022.1.4,Win32,60.0348202
,,,,,,3.906832298,11.1722,5.944099379,2.0205,0,8,8,64,1,485507_sentence_1.wav,5f2b4939dae40959f75f7baf,7,si,2022-05-27_15h41.46.541,ratings_exp,2022.1.4,Win32,60.0348202
,,,,,,3.906832298,16.4892,3.919254658,1.9368,0,9,9,43,1,477072_sentence_2.wav,5f2b4939dae40959f75f7baf,7,si,2022-05-27_15h41.46.541,ratings_exp,2022.1.4,Win32,60.0348202
,,,,,,6.925465839,13.2422,8.142857143,3.2355,0,10,10,24,1,469875_sentence_1.wav,5f2b4939dae40959f75f7baf,7,si,2022-05-27_15h41.46.541,ratings_exp,2022.1.4,Win32,60.0348202
,,,,,,3.01242236,48.2119,4.788819876,7.7684,0,11,11,38,1,472268_sentence_1.wav,5f2b4939dae40959f75f7baf,7,si,2022-05-27_15h41.46.541,ratings_exp,2022.1.4,Win32,60.0348202
,,,,,,7.919254658,8.6673,7.074534161,7.5907,0,12,12,32,1,470901_sentence_1.wav,5f2b4939dae40959f75f7baf,7,si,2022-05-27_15h41.46.541,ratings_exp,2022.1.4,Win32,60.0348202
,,,,,,2.142857143,10.7299,3.01242236,3.4201,0,13,13,44,1,479845_sentence_1.wav,5f2b4939dae40959f75f7baf,7,si,2022-05-27_15h41.46.541,ratings_exp,2022.1.4,Win32,60.0348202
,,,,,,7.02484472,6.5553,7.02484472,1.8059,0,14,14,77,1,488322_sentence_2.wav,5f2b4939dae40959f75f7baf,7,si,2022-05-27_15h41.46.541,ratings_exp,2022.1.4,Win32,60.0348202
,,,,,,5.956521739,7.9004,5.136645963,7.5396,0,15,15,76,1,488322_sentence_1.wav,5f2b4939dae40959f75f7baf,7,si,2022-05-27_15h41.46.541,ratings_exp,2022.1.4,Win32,60.0348202
,,,,,,3.99378882,14.2821,5.062111801,11.1217,0,16,16,21,1,469805_sentence_2.wav,5f2b4939dae40959f75f7baf,7,si,2022-05-27_15h41.46.541,ratings_exp,2022.1.4,Win32,60.0348202
,,,,,,2.950310559,12.0212,4.105590062,6.2274,0,17,17,9,1,469558_sentence_2.wav,5f2b4939dae40959f75f7baf,7,si,2022-05-27_15h41.46.541,ratings_exp,2022.1.4,Win32,60.0348202
,,,,,,3.086956522,13.4365,4.055900621,2.9498,0,18,18,65,1,485507_sentence_2.wav,5f2b4939dae40959f75f7baf,7,si,2022-05-27_15h41.46.541,ratings_exp,2022.1.4,Win32,60.0348202
,,,,,,2.98757764,9.9358,3.223602484,9.0704,0,19,19,41,1,475707_sentence_2.wav,5f2b4939dae40959f75f7baf,7,si,2022-05-27_15h41.46.541,ratings_exp,2022.1.4,Win32,60.0348202
,,,,,,4.279503106,16.6641,6.00621118,90.6216,0,20,20,31,1,470408_sentence_2.wav,5f2b4939dae40959f75f7baf,7,si,2022-05-27_15h41.46.541,ratings_exp,2022.1.4,Win32,60.0348202
,,,,,,3.98136646,7.8578,6.913043478,5.282,0,21,21,72,1,487696_sentence_1.wav,5f2b4939dae40959f75f7baf,7,si,2022-05-27_15h41.46.541,ratings_exp,2022.1.4,Win32,60.0348202
,,,,,,5.02484472,12.873,7.956521739,11.1764,0,22,22,36,1,472263_sentence_1.wav,5f2b4939dae40959f75f7baf,7,si,2022-05-27_15h41.46.541,ratings_exp,2022.1.4,Win32,60.0348202
,,,,,,1.086956522,7.2639,5.111801242,4.9179,0,23,23,71,1,485976_sentence_2.wav,5f2b4939dae40959f75f7baf,7,si,2022-05-27_15h41.46.541,ratings_exp,2022.1.4,Win32,60.0348202
,,,,,,3.049689441,8.4178,6.031055901,2.6697,0,24,24,69,1,485605_sentence_2.wav,5f2b4939dae40959f75f7baf,7,si,2022-05-27_15h41.46.541,ratings_exp,2022.1.4,Win32,60.0348202
,,,,,,1,10.6991,3.844720497,20.5262,0,25,25,17,1,469639_sentence_2.wav,5f2b4939dae40959f75f7baf,7,si,2022-05-27_15h41.46.541,ratings_exp,2022.1.4,Win32,60.0348202
,,,,,,2.031055901,12.3534,2.093167702,79.7712,0,26,26,60,1,484573_sentence_1.wav,5f2b4939dae40959f75f7baf,7,si,2022-05-27_15h41.46.541,ratings_exp,2022.1.4,Win32,60.0348202
,,,,,,1.037267081,10.4051,1.074534161,1.9684,0,27,27,51,1,481532_sentence_2.wav,5f2b4939dae40959f75f7baf,7,si,2022-05-27_15h41.46.541,ratings_exp,2022.1.4,Win32,60.0348202
,,,,,,3,14.4576,4.043478261,3.0187,0,28,28,42,1,477072_sentence_1.wav,5f2b4939dae40959f75f7baf,7,si,2022-05-27_15h41.46.541,ratings_exp,2022.1.4,Win32,60.0348202
,,,,,,3.98136646,8.8652,5.844720497,2.6676,0,29,29,7,1,469553_sentence_2.wav,5f2b4939dae40959f75f7baf,7,si,2022-05-27_15h41.46.541,ratings_exp,2022.1.4,Win32,60.0348202
,,,,,,1.968944099,8.3812,3.906832298,7.1429,0,30,30,47,1,479904_sentence_2.wav,5f2b4939dae40959f75f7baf,7,si,2022-05-27_15h41.46.541,ratings_exp,2022.1.4,Win32,60.0348202
,,,,,,5.02484472,11.3591,4.105590062,49.9418,0,31,31,23,1,469865_sentence_2.wav,5f2b4939dae40959f75f7baf,7,si,2022-05-27_15h41.46.541,ratings_exp,2022.1.4,Win32,60.0348202
,,,,,,5.02484472,10.3585,5.832298137,8.874,0,32,32,33,1,470901_sentence_2.wav,5f2b4939dae40959f75f7baf,7,si,2022-05-27_15h41.46.541,ratings_exp,2022.1.4,Win32,60.0348202
,,,,,,3.136645963,13.6224,7.037267081,3.8184,0,33,33,19,1,469737_sentence_2.wav,5f2b4939dae40959f75f7baf,7,si,2022-05-27_15h41.46.541,ratings_exp,2022.1.4,Win32,60.0348202
,,,,,,1,12.0115,1.98136646,11.3917,0,34,34,59,1,484549_sentence_2.wav,5f2b4939dae40959f75f7baf,7,si,2022-05-27_15h41.46.541,ratings_exp,2022.1.4,Win32,60.0348202
,,,,,,7.968944099,10.0529,8.068322981,2.4342,0,35,35,68,1,485605_sentence_1.wav,5f2b4939dae40959f75f7baf,7,si,2022-05-27_15h41.46.541,ratings_exp,2022.1.4,Win32,60.0348202
,,,,,,2.01863354,8.6297,3,107.2467,0,36,36,58,1,484549_sentence_1.wav,5f2b4939dae40959f75f7baf,7,si,2022-05-27_15h41.46.541,ratings_exp,2022.1.4,Win32,60.0348202
,,,,,,5.98136646,11.9829,6.97515528,33.237,0,37,37,37,1,472263_sentence_2.wav,5f2b4939dae40959f75f7baf,7,si,2022-05-27_15h41.46.541,ratings_exp,2022.1.4,Win32,60.0348202
,,,,,,1.931677019,39.5966,1.857142857,11.579,0,38,38,61,1,484573_sentence_2.wav,5f2b4939dae40959f75f7baf,7,si,2022-05-27_15h41.46.541,ratings_exp,2022.1.4,Win32,60.0348202
,,,,,,3.906832298,13.1534,5.198757764,15.0214,0,39,39,28,1,469909_sentence_1.wav,5f2b4939dae40959f75f7baf,7,si,2022-05-27_15h41.46.541,ratings_exp,2022.1.4,Win32,60.0348202
,,,,,,1.968944099,34.4382,1.02484472,15.2358,0,40,40,34,1,471720_sentence_1.wav,5f2b4939dae40959f75f7baf,7,si,2022-05-27_15h41.46.541,ratings_exp,2022.1.4,Win32,60.0348202
,,,,,,4.055900621,7.6729,5.844720497,6.2409,0,41,41,14,1,469635_sentence_1.wav,5f2b4939dae40959f75f7baf,7,si,2022-05-27_15h41.46.541,ratings_exp,2022.1.4,Win32,60.0348202
,,,,,,2.962732919,11.058,5.161490683,16.1245,0,42,42,40,1,475707_sentence_1.wav,5f2b4939dae40959f75f7baf,7,si,2022-05-27_15h41.46.541,ratings_exp,2022.1.4,Win32,60.0348202
,,,,,,1.98136646,19.9206,3.01242236,26.5029,0,43,43,11,1,469581_sentence_2.wav,5f2b4939dae40959f75f7baf,7,si,2022-05-27_15h41.46.541,ratings_exp,2022.1.4,Win32,60.0348202
,,,,,,4.043478261,15.0239,4.031055901,9.7732,0,44,44,52,1,481962_sentence_1.wav,5f2b4939dae40959f75f7baf,7,si,2022-05-27_15h41.46.541,ratings_exp,2022.1.4,Win32,60.0348202
,,,,,,6.00621118,15.3765,6.00621118,8.3925,0,45,45,49,1,480419_sentence_2.wav,5f2b4939dae40959f75f7baf,7,si,2022-05-27_15h41.46.541,ratings_exp,2022.1.4,Win32,60.0348202
,,,,,,4.01863354,10.3571,6.068322981,9.6592,0,46,46,75,1,487969_sentence_2.wav,5f2b4939dae40959f75f7baf,7,si,2022-05-27_15h41.46.541,ratings_exp,2022.1.4,Win32,60.0348202
,,,,,,1.944099379,14.3319,3.074534161,11.9086,0,47,47,35,1,471720_sentence_2.wav,5f2b4939dae40959f75f7baf,7,si,2022-05-27_15h41.46.541,ratings_exp,2022.1.4,Win32,60.0348202
,,,,,,2.788819876,10.9728,4.925465839,9.6721,0,48,48,22,1,469865_sentence_1.wav,5f2b4939dae40959f75f7baf,7,si,2022-05-27_15h41.46.541,ratings_exp,2022.1.4,Win32,60.0348202
,,,,,,2.937888199,9.9282,5.298136646,6.066,0,49,49,16,1,469639_sentence_1.wav,5f2b4939dae40959f75f7baf,7,si,2022-05-27_15h41.46.541,ratings_exp,2022.1.4,Win32,60.0348202
,,,,,,2.97515528,10.4586,4.055900621,9.6731,0,50,50,63,1,484860_sentence_2.wav,5f2b4939dae40959f75f7baf,7,si,2022-05-27_15h41.46.541,ratings_exp,2022.1.4,Win32,60.0348202
,,,,,,3.086956522,13.4507,3.919254658,15.4226,0,51,51,45,1,479845_sentence_2.wav,5f2b4939dae40959f75f7baf,7,si,2022-05-27_15h41.46.541,ratings_exp,2022.1.4,Win32,60.0348202
,,,,,,3.037267081,13.6348,3.956521739,10.0394,0,52,52,39,1,472268_sentence_2.wav,5f2b4939dae40959f75f7baf,7,si,2022-05-27_15h41.46.541,ratings_exp,2022.1.4,Win32,60.0348202
,,,,,,1.037267081,6.6937,4.950310559,11.7455,0,53,53,66,1,485567_sentence_1.wav,5f2b4939dae40959f75f7baf,7,si,2022-05-27_15h41.46.541,ratings_exp,2022.1.4,Win32,60.0348202
,,,,,,3.931677019,12.6702,4.913043478,13.3881,0,54,54,25,1,469875_sentence_2.wav,5f2b4939dae40959f75f7baf,7,si,2022-05-27_15h41.46.541,ratings_exp,2022.1.4,Win32,60.0348202
,,,,,,3.037267081,13.89,3.968944099,9.7669,0,55,55,74,1,487969_sentence_1.wav,5f2b4939dae40959f75f7baf,7,si,2022-05-27_15h41.46.541,ratings_exp,2022.1.4,Win32,60.0348202
,,,,,,3.881987578,22.2647,3.869565217,15.4134,0,56,56,29,1,469909_sentence_2.wav,5f2b4939dae40959f75f7baf,7,si,2022-05-27_15h41.46.541,ratings_exp,2022.1.4,Win32,60.0348202
,,,,,,1.074534161,18.0684,2.813664596,14.5201,0,57,57,8,1,469558_sentence_1.wav,5f2b4939dae40959f75f7baf,7,si,2022-05-27_15h41.46.541,ratings_exp,2022.1.4,Win32,60.0348202
,,,,,,4.130434783,13.0852,4.850931677,11.8726,0,58,58,1,1,469431_sentence_2.wav,5f2b4939dae40959f75f7baf,7,si,2022-05-27_15h41.46.541,ratings_exp,2022.1.4,Win32,60.0348202
,,,,,,7.037267081,10.7895,7.149068323,19.2999,0,59,59,2,1,469440_sentence_1.wav,5f2b4939dae40959f75f7baf,7,si,2022-05-27_15h41.46.541,ratings_exp,2022.1.4,Win32,60.0348202
,,,,,,2.950310559,15.9009,3.111801242,18.4299,0,60,60,62,1,484860_sentence_1.wav,5f2b4939dae40959f75f7baf,7,si,2022-05-27_15h41.46.541,ratings_exp,2022.1.4,Win32,60.0348202
,,,,,,5.111801242,15.6031,4.826086957,18.5538,0,61,61,6,1,469553_sentence_1.wav,5f2b4939dae40959f75f7baf,7,si,2022-05-27_15h41.46.541,ratings_exp,2022.1.4,Win32,60.0348202
,,,,,,4.080745342,11.2585,4.080745342,8.5253,0,62,62,46,1,479904_sentence_1.wav,5f2b4939dae40959f75f7baf,7,si,2022-05-27_15h41.46.541,ratings_exp,2022.1.4,Win32,60.0348202
,,,,,,4.080745342,12.1048,4.850931677,2.751,0,63,63,26,1,469883_sentence_1.wav,5f2b4939dae40959f75f7baf,7,si,2022-05-27_15h41.46.541,ratings_exp,2022.1.4,Win32,60.0348202
,,,,,,3.881987578,8.9129,5.01242236,8.5632,0,64,64,3,1,469440_sentence_2.wav,5f2b4939dae40959f75f7baf,7,si,2022-05-27_15h41.46.541,ratings_exp,2022.1.4,Win32,60.0348202
,,,,,,1.074534161,11.0622,4.068322981,8.8058,0,65,65,73,1,487696_sentence_2.wav,5f2b4939dae40959f75f7baf,7,si,2022-05-27_15h41.46.541,ratings_exp,2022.1.4,Win32,60.0348202
,,,,,,5.086956522,12.73,6.204968944,11.8862,0,66,66,48,1,480419_sentence_1.wav,5f2b4939dae40959f75f7baf,7,si,2022-05-27_15h41.46.541,ratings_exp,2022.1.4,Win32,60.0348202
,,,,,,4.055900621,14.4336,5.037267081,13.8414,0,67,67,30,1,470408_sentence_1.wav,5f2b4939dae40959f75f7baf,7,si,2022-05-27_15h41.46.541,ratings_exp,2022.1.4,Win32,60.0348202
,,,,,,4.055900621,12.5032,4.043478261,19.2838,0,68,68,12,1,469614_sentence_1.wav,5f2b4939dae40959f75f7baf,7,si,2022-05-27_15h41.46.541,ratings_exp,2022.1.4,Win32,60.0348202
,,,,,,2.043478261,11.0228,2.01863354,1.0515,0,69,69,15,1,469635_sentence_2.wav,5f2b4939dae40959f75f7baf,7,si,2022-05-27_15h41.46.541,ratings_exp,2022.1.4,Win32,60.0348202
,,,,,,3.161490683,12.4265,5.695652174,2.0038,0,70,70,4,1,469495_sentence_1.wav,5f2b4939dae40959f75f7baf,7,si,2022-05-27_15h41.46.541,ratings_exp,2022.1.4,Win32,60.0348202
,,,,,,1.881987578,5.8859,3.02484472,5.2431,0,71,71,10,1,469581_sentence_1.wav,5f2b4939dae40959f75f7baf,7,si,2022-05-27_15h41.46.541,ratings_exp,2022.1.4,Win32,60.0348202
,,,,,,2.863354037,6.2123,5.968944099,5.538,0,72,72,56,1,484457_sentence_1.wav,5f2b4939dae40959f75f7baf,7,si,2022-05-27_15h41.46.541,ratings_exp,2022.1.4,Win32,60.0348202
,,,,,,2.937888199,15.9673,1.074534161,3.9853,0,73,73,55,1,484271_sentence_2.wav,5f2b4939dae40959f75f7baf,7,si,2022-05-27_15h41.46.541,ratings_exp,2022.1.4,Win32,60.0348202
,,,,,,7.98136646,9.378,8.937888199,2.4379,0,74,74,27,1,469883_sentence_2.wav,5f2b4939dae40959f75f7baf,7,si,2022-05-27_15h41.46.541,ratings_exp,2022.1.4,Win32,60.0348202
,,,,,,1.086956522,8.1125,3.01242236,8.208,0,75,75,67,1,485567_sentence_2.wav,5f2b4939dae40959f75f7baf,7,si,2022-05-27_15h41.46.541,ratings_exp,2022.1.4,Win32,60.0348202
,,,,,,3.931677019,20.6622,4.900621118,14.6577,0,76,76,18,1,469737_sentence_1.wav,5f2b4939dae40959f75f7baf,7,si,2022-05-27_15h41.46.541,ratings_exp,2022.1.4,Win32,60.0348202
,,,,,,1.99378882,9.9113,2.043478261,9.3083,0,77,77,50,1,481532_sentence_1.wav,5f2b4939dae40959f75f7baf,7,si,2022-05-27_15h41.46.541,ratings_exp,2022.1.4,Win32,60.0348202
