key_resp.keys,key_resp.rt,eng_proficiency.response,eng_proficiency.rt,eng_proficiency_2.response,eng_proficiency_2.rt,accent_rating.response,accent_rating.rt,accent_rating_2.response,accent_rating_2.rt,trials.thisRepN,trials.thisTrialN,trials.thisN,trials.thisIndex,trials.ran,stim,participant,Cuántos años tenía cuando ud. empezó a aprender el inglés?,Ha enseñado el español cómo seguna lengua?,date,expName,psychopyVersion,OS,frameRate
space,30.892,5.94,5.8789,6.013333333,5.3641,5.213333333,16.7855,8.448888889,19.0553,0,0,0,19,1,469737_sentence_2.wav,5f2f62bb956a3f34b614a33f,12,sí,2022-05-27_15h46.02.867,ratings_exp,2022.1.4,Win32,60.0132029
,,,,,,5.017777778,19.4053,3.977777778,14.6302,0,1,1,37,1,472263_sentence_2.wav,5f2f62bb956a3f34b614a33f,12,sí,2022-05-27_15h46.02.867,ratings_exp,2022.1.4,Win32,60.0132029
,,,,,,2.004444444,15.3035,1.026666667,11.2552,0,2,2,34,1,471720_sentence_1.wav,5f2f62bb956a3f34b614a33f,12,sí,2022-05-27_15h46.02.867,ratings_exp,2022.1.4,Win32,60.0132029
,,,,,,1.062222222,11.8373,2.973333333,10.1825,0,3,3,54,1,484271_sentence_1.wav,5f2f62bb956a3f34b614a33f,12,sí,2022-05-27_15h46.02.867,ratings_exp,2022.1.4,Win32,60.0132029
,,,,,,4.964444444,16.6995,7.515555556,5.8947,0,4,4,25,1,469875_sentence_2.wav,5f2f62bb956a3f34b614a33f,12,sí,2022-05-27_15h46.02.867,ratings_exp,2022.1.4,Win32,60.0132029
,,,,,,3.026666667,9.8965,7.897777778,5.0718,0,5,5,70,1,485976_sentence_1.wav,5f2f62bb956a3f34b614a33f,12,sí,2022-05-27_15h46.02.867,ratings_exp,2022.1.4,Win32,60.0132029
,,,,,,1.035555556,14.9239,1.968888889,4.7683,0,6,6,55,1,484271_sentence_2.wav,5f2f62bb956a3f34b614a33f,12,sí,2022-05-27_15h46.02.867,ratings_exp,2022.1.4,Win32,60.0132029
,,,,,,5.986666667,11.9766,8.617777778,11.7394,0,7,7,57,1,484457_sentence_2.wav,5f2f62bb956a3f34b614a33f,12,sí,2022-05-27_15h46.02.867,ratings_exp,2022.1.4,Win32,60.0132029
,,,,,,5.017777778,15.0825,5,12.5049,0,8,8,21,1,469805_sentence_2.wav,5f2f62bb956a3f34b614a33f,12,sí,2022-05-27_15h46.02.867,ratings_exp,2022.1.4,Win32,60.0132029
,,,,,,5.951111111,8.669,5.96,15.7767,0,9,9,12,1,469614_sentence_1.wav,5f2f62bb956a3f34b614a33f,12,sí,2022-05-27_15h46.02.867,ratings_exp,2022.1.4,Win32,60.0132029
,,,,,,3.995555556,12.247,6.982222222,3.8493,0,10,10,26,1,469883_sentence_1.wav,5f2f62bb956a3f34b614a33f,12,sí,2022-05-27_15h46.02.867,ratings_exp,2022.1.4,Win32,60.0132029
,,,,,,7.008888889,13.8076,8.973333333,5.0614,0,11,11,30,1,470408_sentence_1.wav,5f2f62bb956a3f34b614a33f,12,sí,2022-05-27_15h46.02.867,ratings_exp,2022.1.4,Win32,60.0132029
,,,,,,3.995555556,14.0745,7.977777778,6.8637,0,12,12,47,1,479904_sentence_2.wav,5f2f62bb956a3f34b614a33f,12,sí,2022-05-27_15h46.02.867,ratings_exp,2022.1.4,Win32,60.0132029
,,,,,,4.955555556,11.1904,8.777777778,2.7265,0,13,13,39,1,472268_sentence_2.wav,5f2f62bb956a3f34b614a33f,12,sí,2022-05-27_15h46.02.867,ratings_exp,2022.1.4,Win32,60.0132029
,,,,,,3.471111111,7.7699,8.022222222,1.6516,0,14,14,8,1,469558_sentence_1.wav,5f2f62bb956a3f34b614a33f,12,sí,2022-05-27_15h46.02.867,ratings_exp,2022.1.4,Win32,60.0132029
,,,,,,5,9.1121,8.751111111,4.3264,0,15,15,75,1,487969_sentence_2.wav,5f2f62bb956a3f34b614a33f,12,sí,2022-05-27_15h46.02.867,ratings_exp,2022.1.4,Win32,60.0132029
,,,,,,4.946666667,15.4062,7.551111111,2.446,0,16,16,29,1,469909_sentence_2.wav,5f2f62bb956a3f34b614a33f,12,sí,2022-05-27_15h46.02.867,ratings_exp,2022.1.4,Win32,60.0132029
,,,,,,5.951111111,11.5805,7.995555556,2.9487,0,17,17,18,1,469737_sentence_1.wav,5f2f62bb956a3f34b614a33f,12,sí,2022-05-27_15h46.02.867,ratings_exp,2022.1.4,Win32,60.0132029
,,,,,,3.977777778,18.8137,4.982222222,4.1102,0,18,18,43,1,477072_sentence_2.wav,5f2f62bb956a3f34b614a33f,12,sí,2022-05-27_15h46.02.867,ratings_exp,2022.1.4,Win32,60.0132029
,,,,,,5.968888889,12.1615,8.76,11.1665,0,19,19,48,1,480419_sentence_1.wav,5f2f62bb956a3f34b614a33f,12,sí,2022-05-27_15h46.02.867,ratings_exp,2022.1.4,Win32,60.0132029
,,,,,,5.924444444,9.5723,8.004444444,2.6328,0,20,20,67,1,485567_sentence_2.wav,5f2f62bb956a3f34b614a33f,12,sí,2022-05-27_15h46.02.867,ratings_exp,2022.1.4,Win32,60.0132029
,,,,,,3.16,8.6191,2.991111111,5.9673,0,21,21,53,1,481962_sentence_2.wav,5f2f62bb956a3f34b614a33f,12,sí,2022-05-27_15h46.02.867,ratings_exp,2022.1.4,Win32,60.0132029
,,,,,,1.977777778,9.4479,4.315555556,5.1098,0,22,22,10,1,469581_sentence_1.wav,5f2f62bb956a3f34b614a33f,12,sí,2022-05-27_15h46.02.867,ratings_exp,2022.1.4,Win32,60.0132029
,,,,,,5.026666667,10.3738,5.515555556,4.896,0,23,23,46,1,479904_sentence_1.wav,5f2f62bb956a3f34b614a33f,12,sí,2022-05-27_15h46.02.867,ratings_exp,2022.1.4,Win32,60.0132029
,,,,,,3.773333333,11.5862,4.955555556,4.1916,0,24,24,23,1,469865_sentence_2.wav,5f2f62bb956a3f34b614a33f,12,sí,2022-05-27_15h46.02.867,ratings_exp,2022.1.4,Win32,60.0132029
,,,,,,3.951111111,9.4436,3.8,7.2298,0,25,25,41,1,475707_sentence_2.wav,5f2f62bb956a3f34b614a33f,12,sí,2022-05-27_15h46.02.867,ratings_exp,2022.1.4,Win32,60.0132029
,,,,,,6.822222222,10.3365,8.564444444,4.7758,0,26,26,2,1,469440_sentence_1.wav,5f2f62bb956a3f34b614a33f,12,sí,2022-05-27_15h46.02.867,ratings_exp,2022.1.4,Win32,60.0132029
,,,,,,5.968888889,8.8043,8.164444444,14.1747,0,27,27,1,1,469431_sentence_2.wav,5f2f62bb956a3f34b614a33f,12,sí,2022-05-27_15h46.02.867,ratings_exp,2022.1.4,Win32,60.0132029
,,,,,,5.533333333,9.6786,7.8,3.2734,0,28,28,3,1,469440_sentence_2.wav,5f2f62bb956a3f34b614a33f,12,sí,2022-05-27_15h46.02.867,ratings_exp,2022.1.4,Win32,60.0132029
,,,,,,3,11.9132,1.577777778,5.6634,0,29,29,61,1,484573_sentence_2.wav,5f2f62bb956a3f34b614a33f,12,sí,2022-05-27_15h46.02.867,ratings_exp,2022.1.4,Win32,60.0132029
,,,,,,2.937777778,9.4384,5.471111111,6.2402,0,30,30,59,1,484549_sentence_2.wav,5f2f62bb956a3f34b614a33f,12,sí,2022-05-27_15h46.02.867,ratings_exp,2022.1.4,Win32,60.0132029
,,,,,,7.008888889,13.6636,7.933333333,4.5638,0,31,31,24,1,469875_sentence_1.wav,5f2f62bb956a3f34b614a33f,12,sí,2022-05-27_15h46.02.867,ratings_exp,2022.1.4,Win32,60.0132029
,,,,,,1.586666667,11.5301,3.008888889,8.2962,0,32,32,51,1,481532_sentence_2.wav,5f2f62bb956a3f34b614a33f,12,sí,2022-05-27_15h46.02.867,ratings_exp,2022.1.4,Win32,60.0132029
,,,,,,3.533333333,13.8341,6.555555556,10.0787,0,33,33,63,1,484860_sentence_2.wav,5f2f62bb956a3f34b614a33f,12,sí,2022-05-27_15h46.02.867,ratings_exp,2022.1.4,Win32,60.0132029
,,,,,,5.008888889,9.1244,7.897777778,2.6155,0,34,34,16,1,469639_sentence_1.wav,5f2f62bb956a3f34b614a33f,12,sí,2022-05-27_15h46.02.867,ratings_exp,2022.1.4,Win32,60.0132029
,,,,,,5.515555556,10.7027,8.662222222,3.5033,0,35,35,66,1,485567_sentence_1.wav,5f2f62bb956a3f34b614a33f,12,sí,2022-05-27_15h46.02.867,ratings_exp,2022.1.4,Win32,60.0132029
,,,,,,5.417777778,7.3572,8.804444444,3.3223,0,36,36,56,1,484457_sentence_1.wav,5f2f62bb956a3f34b614a33f,12,sí,2022-05-27_15h46.02.867,ratings_exp,2022.1.4,Win32,60.0132029
,,,,,,2.573333333,10.2676,6.342222222,2.5037,0,37,37,9,1,469558_sentence_2.wav,5f2f62bb956a3f34b614a33f,12,sí,2022-05-27_15h46.02.867,ratings_exp,2022.1.4,Win32,60.0132029
,,,,,,6.688888889,8.9887,8.671111111,2.6384,0,38,38,32,1,470901_sentence_1.wav,5f2f62bb956a3f34b614a33f,12,sí,2022-05-27_15h46.02.867,ratings_exp,2022.1.4,Win32,60.0132029
,,,,,,6.004444444,12.7866,7.177777778,3.696,0,39,39,45,1,479845_sentence_2.wav,5f2f62bb956a3f34b614a33f,12,sí,2022-05-27_15h46.02.867,ratings_exp,2022.1.4,Win32,60.0132029
,,,,,,3.977777778,13.8862,3.933333333,2.8075,0,40,40,73,1,487696_sentence_2.wav,5f2f62bb956a3f34b614a33f,12,sí,2022-05-27_15h46.02.867,ratings_exp,2022.1.4,Win32,60.0132029
,,,,,,2.502222222,20.2835,4.368888889,3.8634,0,41,41,17,1,469639_sentence_2.wav,5f2f62bb956a3f34b614a33f,12,sí,2022-05-27_15h46.02.867,ratings_exp,2022.1.4,Win32,60.0132029
,,,,,,4.226666667,9.6219,6.04,1.9591,0,42,42,76,1,488322_sentence_1.wav,5f2f62bb956a3f34b614a33f,12,sí,2022-05-27_15h46.02.867,ratings_exp,2022.1.4,Win32,60.0132029
,,,,,,4.973333333,14.4061,7.995555556,2.0063,0,43,43,4,1,469495_sentence_1.wav,5f2f62bb956a3f34b614a33f,12,sí,2022-05-27_15h46.02.867,ratings_exp,2022.1.4,Win32,60.0132029
,,,,,,5.293333333,10.5407,7.862222222,2.7273,0,44,44,72,1,487696_sentence_1.wav,5f2f62bb956a3f34b614a33f,12,sí,2022-05-27_15h46.02.867,ratings_exp,2022.1.4,Win32,60.0132029
,,,,,,3.96,11.897,8.866666667,2.4399,0,45,45,36,1,472263_sentence_1.wav,5f2f62bb956a3f34b614a33f,12,sí,2022-05-27_15h46.02.867,ratings_exp,2022.1.4,Win32,60.0132029
,,,,,,5.711111111,10.915,6.973333333,3.9968,0,46,46,65,1,485507_sentence_2.wav,5f2f62bb956a3f34b614a33f,12,sí,2022-05-27_15h46.02.867,ratings_exp,2022.1.4,Win32,60.0132029
,,,,,,5.471111111,12.4557,5.995555556,4.74,0,47,47,52,1,481962_sentence_1.wav,5f2f62bb956a3f34b614a33f,12,sí,2022-05-27_15h46.02.867,ratings_exp,2022.1.4,Win32,60.0132029
,,,,,,3.115555556,9.736,3.186666667,2.2693,0,48,48,50,1,481532_sentence_1.wav,5f2f62bb956a3f34b614a33f,12,sí,2022-05-27_15h46.02.867,ratings_exp,2022.1.4,Win32,60.0132029
,,,,,,5.888888889,12.0464,6.946666667,5.564,0,49,49,68,1,485605_sentence_1.wav,5f2f62bb956a3f34b614a33f,12,sí,2022-05-27_15h46.02.867,ratings_exp,2022.1.4,Win32,60.0132029
,,,,,,6.057777778,15.2543,8.564444444,3.6342,0,50,50,31,1,470408_sentence_2.wav,5f2f62bb956a3f34b614a33f,12,sí,2022-05-27_15h46.02.867,ratings_exp,2022.1.4,Win32,60.0132029
,,,,,,5.355555556,22.0727,4.964444444,7.2147,0,51,51,20,1,469805_sentence_1.wav,5f2f62bb956a3f34b614a33f,12,sí,2022-05-27_15h46.02.867,ratings_exp,2022.1.4,Win32,60.0132029
,,,,,,2.982222222,9.783,2.964444444,2.3352,0,52,52,35,1,471720_sentence_2.wav,5f2f62bb956a3f34b614a33f,12,sí,2022-05-27_15h46.02.867,ratings_exp,2022.1.4,Win32,60.0132029
,,,,,,5.986666667,9.1981,7,1.8975,0,53,53,33,1,470901_sentence_2.wav,5f2f62bb956a3f34b614a33f,12,sí,2022-05-27_15h46.02.867,ratings_exp,2022.1.4,Win32,60.0132029
,,,,,,5.942222222,13.0372,6.902222222,2.9524,0,54,54,64,1,485507_sentence_1.wav,5f2f62bb956a3f34b614a33f,12,sí,2022-05-27_15h46.02.867,ratings_exp,2022.1.4,Win32,60.0132029
,,,,,,3.106666667,6.1469,2.768888889,10.2721,0,55,55,58,1,484549_sentence_1.wav,5f2f62bb956a3f34b614a33f,12,sí,2022-05-27_15h46.02.867,ratings_exp,2022.1.4,Win32,60.0132029
,,,,,,7.933333333,7.0072,8.964444444,3.6133,0,56,56,77,1,488322_sentence_2.wav,5f2f62bb956a3f34b614a33f,12,sí,2022-05-27_15h46.02.867,ratings_exp,2022.1.4,Win32,60.0132029
,,,,,,5.613333333,11.356,3.284444444,2.0546,0,57,57,49,1,480419_sentence_2.wav,5f2f62bb956a3f34b614a33f,12,sí,2022-05-27_15h46.02.867,ratings_exp,2022.1.4,Win32,60.0132029
,,,,,,2.582222222,11.7876,3.648888889,5.2142,0,58,58,15,1,469635_sentence_2.wav,5f2f62bb956a3f34b614a33f,12,sí,2022-05-27_15h46.02.867,ratings_exp,2022.1.4,Win32,60.0132029
,,,,,,6.031111111,11.9517,7.977777778,2.7352,0,59,59,0,1,469431_sentence_1.wav,5f2f62bb956a3f34b614a33f,12,sí,2022-05-27_15h46.02.867,ratings_exp,2022.1.4,Win32,60.0132029
,,,,,,3.951111111,13.1357,6.991111111,2.079,0,60,60,44,1,479845_sentence_1.wav,5f2f62bb956a3f34b614a33f,12,sí,2022-05-27_15h46.02.867,ratings_exp,2022.1.4,Win32,60.0132029
,,,,,,2.555555556,11.7636,1.96,2.7764,0,61,61,60,1,484573_sentence_1.wav,5f2f62bb956a3f34b614a33f,12,sí,2022-05-27_15h46.02.867,ratings_exp,2022.1.4,Win32,60.0132029
,,,,,,4.048888889,9.6968,3.844444444,8.9175,0,62,62,14,1,469635_sentence_1.wav,5f2f62bb956a3f34b614a33f,12,sí,2022-05-27_15h46.02.867,ratings_exp,2022.1.4,Win32,60.0132029
,,,,,,4.048888889,15.4621,4.04,15.3902,0,63,63,42,1,477072_sentence_1.wav,5f2f62bb956a3f34b614a33f,12,sí,2022-05-27_15h46.02.867,ratings_exp,2022.1.4,Win32,60.0132029
,,,,,,5,13.6065,3.764444444,2.0164,0,64,64,62,1,484860_sentence_1.wav,5f2f62bb956a3f34b614a33f,12,sí,2022-05-27_15h46.02.867,ratings_exp,2022.1.4,Win32,60.0132029
,,,,,,2.893333333,11.0142,5.462222222,2.4115,0,65,65,28,1,469909_sentence_1.wav,5f2f62bb956a3f34b614a33f,12,sí,2022-05-27_15h46.02.867,ratings_exp,2022.1.4,Win32,60.0132029
,,,,,,5.995555556,8.8296,8.884444444,4.3218,0,66,66,74,1,487969_sentence_1.wav,5f2f62bb956a3f34b614a33f,12,sí,2022-05-27_15h46.02.867,ratings_exp,2022.1.4,Win32,60.0132029
,,,,,,4.022222222,9.4076,5,3.1896,0,67,67,11,1,469581_sentence_2.wav,5f2f62bb956a3f34b614a33f,12,sí,2022-05-27_15h46.02.867,ratings_exp,2022.1.4,Win32,60.0132029
,,,,,,6.546666667,10.901,8.946666667,2.263,0,68,68,13,1,469614_sentence_2.wav,5f2f62bb956a3f34b614a33f,12,sí,2022-05-27_15h46.02.867,ratings_exp,2022.1.4,Win32,60.0132029
,,,,,,6.075555556,15.7629,5.96,8.8474,0,69,69,40,1,475707_sentence_1.wav,5f2f62bb956a3f34b614a33f,12,sí,2022-05-27_15h46.02.867,ratings_exp,2022.1.4,Win32,60.0132029
,,,,,,4.36,8.3634,6.857777778,1.8073,0,70,70,69,1,485605_sentence_2.wav,5f2f62bb956a3f34b614a33f,12,sí,2022-05-27_15h46.02.867,ratings_exp,2022.1.4,Win32,60.0132029
,,,,,,3.462222222,14.0295,3.728888889,7.6475,0,71,71,5,1,469495_sentence_2.wav,5f2f62bb956a3f34b614a33f,12,sí,2022-05-27_15h46.02.867,ratings_exp,2022.1.4,Win32,60.0132029
,,,,,,4.208888889,13.9471,6.173333333,2.9939,0,72,72,22,1,469865_sentence_1.wav,5f2f62bb956a3f34b614a33f,12,sí,2022-05-27_15h46.02.867,ratings_exp,2022.1.4,Win32,60.0132029
,,,,,,5.942222222,8.5466,3.977777778,9.5678,0,73,73,7,1,469553_sentence_2.wav,5f2f62bb956a3f34b614a33f,12,sí,2022-05-27_15h46.02.867,ratings_exp,2022.1.4,Win32,60.0132029
,,,,,,5.968888889,9.8653,6.928888889,3.8887,0,74,74,6,1,469553_sentence_1.wav,5f2f62bb956a3f34b614a33f,12,sí,2022-05-27_15h46.02.867,ratings_exp,2022.1.4,Win32,60.0132029
,,,,,,4.075555556,9.3702,7.96,7.0643,0,75,75,71,1,485976_sentence_2.wav,5f2f62bb956a3f34b614a33f,12,sí,2022-05-27_15h46.02.867,ratings_exp,2022.1.4,Win32,60.0132029
,,,,,,8.573333333,8.526,8.76,2.2236,0,76,76,27,1,469883_sentence_2.wav,5f2f62bb956a3f34b614a33f,12,sí,2022-05-27_15h46.02.867,ratings_exp,2022.1.4,Win32,60.0132029
,,,,,,4.244444444,11.4818,4.875555556,14.3227,0,77,77,38,1,472268_sentence_1.wav,5f2f62bb956a3f34b614a33f,12,sí,2022-05-27_15h46.02.867,ratings_exp,2022.1.4,Win32,60.0132029
