key_resp.keys,key_resp.rt,eng_proficiency.response,eng_proficiency.rt,eng_proficiency_2.response,eng_proficiency_2.rt,accent_rating.response,accent_rating.rt,accent_rating_2.response,accent_rating_2.rt,trials.thisRepN,trials.thisTrialN,trials.thisN,trials.thisIndex,trials.ran,stim,participant,Cuántos años tenía cuando ud. empezó a aprender el inglés?,Ha enseñado el español cómo seguna lengua?,date,expName,psychopyVersion,OS,frameRate
space,21.6849,6.9921875,8.6065,8.979166667,5.1246,1.958333333,22.9464,3.993055556,18.3595,0,0,0,61,1,484573_sentence_2.wav,5f2f770677605936ed61db61,8,no,2022-05-27_14h43.34.691,ratings_exp,2022.1.4,Win32,60.05645307
,,,,,,1.027777778,15.8293,4.013888889,29.5794,0,1,1,70,1,485976_sentence_1.wav,5f2f770677605936ed61db61,8,no,2022-05-27_14h43.34.691,ratings_exp,2022.1.4,Win32,60.05645307
,,,,,,6.020833333,30.8688,7.020833333,18.2713,0,2,2,0,1,469431_sentence_1.wav,5f2f770677605936ed61db61,8,no,2022-05-27_14h43.34.691,ratings_exp,2022.1.4,Win32,60.05645307
,,,,,,7,11.62,7.993055556,10.4848,0,3,3,77,1,488322_sentence_2.wav,5f2f770677605936ed61db61,8,no,2022-05-27_14h43.34.691,ratings_exp,2022.1.4,Win32,60.05645307
,,,,,,5.006944444,11.6995,6.979166667,7.7319,0,4,4,56,1,484457_sentence_1.wav,5f2f770677605936ed61db61,8,no,2022-05-27_14h43.34.691,ratings_exp,2022.1.4,Win32,60.05645307
,,,,,,7.979166667,14.7319,7.993055556,11.6973,0,5,5,4,1,469495_sentence_1.wav,5f2f770677605936ed61db61,8,no,2022-05-27_14h43.34.691,ratings_exp,2022.1.4,Win32,60.05645307
,,,,,,6.993055556,12.2894,3.993055556,7.9678,0,6,6,53,1,481962_sentence_2.wav,5f2f770677605936ed61db61,8,no,2022-05-27_14h43.34.691,ratings_exp,2022.1.4,Win32,60.05645307
,,,,,,3.006944444,19.8393,1.979166667,16.3796,0,7,7,35,1,471720_sentence_2.wav,5f2f770677605936ed61db61,8,no,2022-05-27_14h43.34.691,ratings_exp,2022.1.4,Win32,60.05645307
,,,,,,8,15.8336,8.993055556,12.711,0,8,8,13,1,469614_sentence_2.wav,5f2f770677605936ed61db61,8,no,2022-05-27_14h43.34.691,ratings_exp,2022.1.4,Win32,60.05645307
,,,,,,7.993055556,12.8179,7.006944444,10.5515,0,9,9,49,1,480419_sentence_2.wav,5f2f770677605936ed61db61,8,no,2022-05-27_14h43.34.691,ratings_exp,2022.1.4,Win32,60.05645307
,,,,,,1.027777778,12.5289,3.979166667,13.38,0,10,10,58,1,484549_sentence_1.wav,5f2f770677605936ed61db61,8,no,2022-05-27_14h43.34.691,ratings_exp,2022.1.4,Win32,60.05645307
,,,,,,7.958333333,10.4127,8.881944444,11.6254,0,11,11,27,1,469883_sentence_2.wav,5f2f770677605936ed61db61,8,no,2022-05-27_14h43.34.691,ratings_exp,2022.1.4,Win32,60.05645307
,,,,,,5.006944444,14.1737,8.909722222,9.0856,0,12,12,67,1,485567_sentence_2.wav,5f2f770677605936ed61db61,8,no,2022-05-27_14h43.34.691,ratings_exp,2022.1.4,Win32,60.05645307
,,,,,,4.048611111,15.4775,2.993055556,12.7979,0,13,13,50,1,481532_sentence_1.wav,5f2f770677605936ed61db61,8,no,2022-05-27_14h43.34.691,ratings_exp,2022.1.4,Win32,60.05645307
,,,,,,2,11.4306,6.013888889,10.5629,0,14,14,6,1,469553_sentence_1.wav,5f2f770677605936ed61db61,8,no,2022-05-27_14h43.34.691,ratings_exp,2022.1.4,Win32,60.05645307
,,,,,,1.013888889,14.8148,3.993055556,11.4353,0,15,15,9,1,469558_sentence_2.wav,5f2f770677605936ed61db61,8,no,2022-05-27_14h43.34.691,ratings_exp,2022.1.4,Win32,60.05645307
,,,,,,3.965277778,11.1844,7.993055556,10.9448,0,16,16,14,1,469635_sentence_1.wav,5f2f770677605936ed61db61,8,no,2022-05-27_14h43.34.691,ratings_exp,2022.1.4,Win32,60.05645307
,,,,,,2.958333333,21.313,2.006944444,18.8924,0,17,17,11,1,469581_sentence_2.wav,5f2f770677605936ed61db61,8,no,2022-05-27_14h43.34.691,ratings_exp,2022.1.4,Win32,60.05645307
,,,,,,4.993055556,23.2306,3.993055556,19.6337,0,18,18,62,1,484860_sentence_1.wav,5f2f770677605936ed61db61,8,no,2022-05-27_14h43.34.691,ratings_exp,2022.1.4,Win32,60.05645307
,,,,,,1.027777778,13.9777,1.027777778,14.8114,0,19,19,54,1,484271_sentence_1.wav,5f2f770677605936ed61db61,8,no,2022-05-27_14h43.34.691,ratings_exp,2022.1.4,Win32,60.05645307
,,,,,,1.993055556,9.8782,1.986111111,9.8984,0,20,20,75,1,487969_sentence_2.wav,5f2f770677605936ed61db61,8,no,2022-05-27_14h43.34.691,ratings_exp,2022.1.4,Win32,60.05645307
,,,,,,6.986111111,17.8012,8,12.7593,0,21,21,36,1,472263_sentence_1.wav,5f2f770677605936ed61db61,8,no,2022-05-27_14h43.34.691,ratings_exp,2022.1.4,Win32,60.05645307
,,,,,,4,9.0217,8.034722222,9.0085,0,22,22,71,1,485976_sentence_2.wav,5f2f770677605936ed61db61,8,no,2022-05-27_14h43.34.691,ratings_exp,2022.1.4,Win32,60.05645307
,,,,,,5.986111111,13.9448,7.006944444,10.8158,0,23,23,52,1,481962_sentence_1.wav,5f2f770677605936ed61db61,8,no,2022-05-27_14h43.34.691,ratings_exp,2022.1.4,Win32,60.05645307
,,,,,,1.965277778,15.2292,6.006944444,16.1235,0,24,24,59,1,484549_sentence_2.wav,5f2f770677605936ed61db61,8,no,2022-05-27_14h43.34.691,ratings_exp,2022.1.4,Win32,60.05645307
,,,,,,7.006944444,16.2961,3.006944444,12.2149,0,25,25,65,1,485507_sentence_2.wav,5f2f770677605936ed61db61,8,no,2022-05-27_14h43.34.691,ratings_exp,2022.1.4,Win32,60.05645307
,,,,,,6.993055556,18.7972,7.972222222,92.9755,0,26,26,12,1,469614_sentence_1.wav,5f2f770677605936ed61db61,8,no,2022-05-27_14h43.34.691,ratings_exp,2022.1.4,Win32,60.05645307
,,,,,,8.979166667,14.6791,8.958333333,7.9447,0,27,27,68,1,485605_sentence_1.wav,5f2f770677605936ed61db61,8,no,2022-05-27_14h43.34.691,ratings_exp,2022.1.4,Win32,60.05645307
,,,,,,8.048611111,11.1421,8.993055556,8.4896,0,28,28,2,1,469440_sentence_1.wav,5f2f770677605936ed61db61,8,no,2022-05-27_14h43.34.691,ratings_exp,2022.1.4,Win32,60.05645307
,,,,,,3.986111111,9.7292,5,8.1896,0,29,29,74,1,487969_sentence_1.wav,5f2f770677605936ed61db61,8,no,2022-05-27_14h43.34.691,ratings_exp,2022.1.4,Win32,60.05645307
,,,,,,4.027777778,15.7028,7.048611111,11.4567,0,30,30,44,1,479845_sentence_1.wav,5f2f770677605936ed61db61,8,no,2022-05-27_14h43.34.691,ratings_exp,2022.1.4,Win32,60.05645307
,,,,,,1.013888889,25.4706,3.006944444,27.2512,0,31,31,55,1,484271_sentence_2.wav,5f2f770677605936ed61db61,8,no,2022-05-27_14h43.34.691,ratings_exp,2022.1.4,Win32,60.05645307
,,,,,,3.951388889,54.7152,5.979166667,9.9595,0,32,32,46,1,479904_sentence_1.wav,5f2f770677605936ed61db61,8,no,2022-05-27_14h43.34.691,ratings_exp,2022.1.4,Win32,60.05645307
,,,,,,3.958333333,14.3033,6.986111111,13.4235,0,33,33,39,1,472268_sentence_2.wav,5f2f770677605936ed61db61,8,no,2022-05-27_14h43.34.691,ratings_exp,2022.1.4,Win32,60.05645307
,,,,,,2.993055556,12.4275,2.993055556,22.3996,0,34,34,57,1,484457_sentence_2.wav,5f2f770677605936ed61db61,8,no,2022-05-27_14h43.34.691,ratings_exp,2022.1.4,Win32,60.05645307
,,,,,,5.972222222,17.1554,8.006944444,16.6251,0,35,35,48,1,480419_sentence_1.wav,5f2f770677605936ed61db61,8,no,2022-05-27_14h43.34.691,ratings_exp,2022.1.4,Win32,60.05645307
,,,,,,5.006944444,15.0901,6.027777778,11.3062,0,36,36,40,1,475707_sentence_1.wav,5f2f770677605936ed61db61,8,no,2022-05-27_14h43.34.691,ratings_exp,2022.1.4,Win32,60.05645307
,,,,,,3.006944444,16.7782,6,19.2572,0,37,37,43,1,477072_sentence_2.wav,5f2f770677605936ed61db61,8,no,2022-05-27_14h43.34.691,ratings_exp,2022.1.4,Win32,60.05645307
,,,,,,2.027777778,15.2677,5.993055556,13.3611,0,38,38,25,1,469875_sentence_2.wav,5f2f770677605936ed61db61,8,no,2022-05-27_14h43.34.691,ratings_exp,2022.1.4,Win32,60.05645307
,,,,,,6.041666667,14.2582,4.951388889,11.1939,0,39,39,7,1,469553_sentence_2.wav,5f2f770677605936ed61db61,8,no,2022-05-27_14h43.34.691,ratings_exp,2022.1.4,Win32,60.05645307
,,,,,,3.958333333,11.5215,5.972222222,11.517,0,40,40,5,1,469495_sentence_2.wav,5f2f770677605936ed61db61,8,no,2022-05-27_14h43.34.691,ratings_exp,2022.1.4,Win32,60.05645307
,,,,,,3.930555556,15.9543,5.972222222,10.255,0,41,41,16,1,469639_sentence_1.wav,5f2f770677605936ed61db61,8,no,2022-05-27_14h43.34.691,ratings_exp,2022.1.4,Win32,60.05645307
,,,,,,5.041666667,11.7794,6.041666667,12.2232,0,42,42,26,1,469883_sentence_1.wav,5f2f770677605936ed61db61,8,no,2022-05-27_14h43.34.691,ratings_exp,2022.1.4,Win32,60.05645307
,,,,,,1.993055556,11.8235,3.979166667,15.7823,0,43,43,23,1,469865_sentence_2.wav,5f2f770677605936ed61db61,8,no,2022-05-27_14h43.34.691,ratings_exp,2022.1.4,Win32,60.05645307
,,,,,,4.027777778,12.6043,2.930555556,9.5808,0,44,44,72,1,487696_sentence_1.wav,5f2f770677605936ed61db61,8,no,2022-05-27_14h43.34.691,ratings_exp,2022.1.4,Win32,60.05645307
,,,,,,6.034722222,12.5032,5.013888889,14.6022,0,45,45,28,1,469909_sentence_1.wav,5f2f770677605936ed61db61,8,no,2022-05-27_14h43.34.691,ratings_exp,2022.1.4,Win32,60.05645307
,,,,,,5.013888889,18.8205,2.993055556,9.6913,0,46,46,64,1,485507_sentence_1.wav,5f2f770677605936ed61db61,8,no,2022-05-27_14h43.34.691,ratings_exp,2022.1.4,Win32,60.05645307
,,,,,,2.979166667,9.4207,3.993055556,7.6434,0,47,47,47,1,479904_sentence_2.wav,5f2f770677605936ed61db61,8,no,2022-05-27_14h43.34.691,ratings_exp,2022.1.4,Win32,60.05645307
,,,,,,6.034722222,16.5622,8.479166667,13.709,0,48,48,30,1,470408_sentence_1.wav,5f2f770677605936ed61db61,8,no,2022-05-27_14h43.34.691,ratings_exp,2022.1.4,Win32,60.05645307
,,,,,,1.597222222,17.283,3.965277778,18.8641,0,49,49,17,1,469639_sentence_2.wav,5f2f770677605936ed61db61,8,no,2022-05-27_14h43.34.691,ratings_exp,2022.1.4,Win32,60.05645307
,,,,,,3.958333333,20.7634,5.041666667,17.475,0,50,50,29,1,469909_sentence_2.wav,5f2f770677605936ed61db61,8,no,2022-05-27_14h43.34.691,ratings_exp,2022.1.4,Win32,60.05645307
,,,,,,8,14.5029,8.958333333,13.4611,0,51,51,24,1,469875_sentence_1.wav,5f2f770677605936ed61db61,8,no,2022-05-27_14h43.34.691,ratings_exp,2022.1.4,Win32,60.05645307
,,,,,,1.055555556,9.0602,2.076388889,8.1723,0,52,52,38,1,472268_sentence_1.wav,5f2f770677605936ed61db61,8,no,2022-05-27_14h43.34.691,ratings_exp,2022.1.4,Win32,60.05645307
,,,,,,4.020833333,13.5416,5.944444444,8.3379,0,53,53,69,1,485605_sentence_2.wav,5f2f770677605936ed61db61,8,no,2022-05-27_14h43.34.691,ratings_exp,2022.1.4,Win32,60.05645307
,,,,,,3.069444444,13.8669,4.5625,13.5366,0,54,54,18,1,469737_sentence_1.wav,5f2f770677605936ed61db61,8,no,2022-05-27_14h43.34.691,ratings_exp,2022.1.4,Win32,60.05645307
,,,,,,2.993055556,15.4796,1.986111111,14.0227,0,55,55,45,1,479845_sentence_2.wav,5f2f770677605936ed61db61,8,no,2022-05-27_14h43.34.691,ratings_exp,2022.1.4,Win32,60.05645307
,,,,,,1.986111111,11.3961,2.5,11.1865,0,56,56,10,1,469581_sentence_1.wav,5f2f770677605936ed61db61,8,no,2022-05-27_14h43.34.691,ratings_exp,2022.1.4,Win32,60.05645307
,,,,,,2.5,2.1407,2.013888889,10.908,0,57,57,73,1,487696_sentence_2.wav,5f2f770677605936ed61db61,8,no,2022-05-27_14h43.34.691,ratings_exp,2022.1.4,Win32,60.05645307
,,,,,,4.423611111,11.6234,6.020833333,9.0516,0,58,58,32,1,470901_sentence_1.wav,5f2f770677605936ed61db61,8,no,2022-05-27_14h43.34.691,ratings_exp,2022.1.4,Win32,60.05645307
,,,,,,8.902777778,10.2591,8.013888889,7.1925,0,59,59,76,1,488322_sentence_1.wav,5f2f770677605936ed61db61,8,no,2022-05-27_14h43.34.691,ratings_exp,2022.1.4,Win32,60.05645307
,,,,,,1.958333333,13.8066,3.006944444,11.2556,0,60,60,19,1,469737_sentence_2.wav,5f2f770677605936ed61db61,8,no,2022-05-27_14h43.34.691,ratings_exp,2022.1.4,Win32,60.05645307
,,,,,,1.041666667,15.2957,4.138888889,19.6555,0,61,61,8,1,469558_sentence_1.wav,5f2f770677605936ed61db61,8,no,2022-05-27_14h43.34.691,ratings_exp,2022.1.4,Win32,60.05645307
,,,,,,2.013888889,17.2542,1,5.1077,0,62,62,34,1,471720_sentence_1.wav,5f2f770677605936ed61db61,8,no,2022-05-27_14h43.34.691,ratings_exp,2022.1.4,Win32,60.05645307
,,,,,,1.152777778,6.7435,5.013888889,11.4561,0,63,63,33,1,470901_sentence_2.wav,5f2f770677605936ed61db61,8,no,2022-05-27_14h43.34.691,ratings_exp,2022.1.4,Win32,60.05645307
,,,,,,3.972222222,19.5584,5.416666667,14.175,0,64,64,31,1,470408_sentence_2.wav,5f2f770677605936ed61db61,8,no,2022-05-27_14h43.34.691,ratings_exp,2022.1.4,Win32,60.05645307
,,,,,,1.090277778,10.8337,1.277777778,9.3998,0,65,65,51,1,481532_sentence_2.wav,5f2f770677605936ed61db61,8,no,2022-05-27_14h43.34.691,ratings_exp,2022.1.4,Win32,60.05645307
,,,,,,2.965277778,15.0298,2.777777778,118.6141,0,66,66,42,1,477072_sentence_1.wav,5f2f770677605936ed61db61,8,no,2022-05-27_14h43.34.691,ratings_exp,2022.1.4,Win32,60.05645307
,,,,,,1.638888889,13.6095,2.104166667,56.5549,0,67,67,37,1,472263_sentence_2.wav,5f2f770677605936ed61db61,8,no,2022-05-27_14h43.34.691,ratings_exp,2022.1.4,Win32,60.05645307
,,,,,,4.0625,13.5264,6.875,15.2757,0,68,68,1,1,469431_sentence_2.wav,5f2f770677605936ed61db61,8,no,2022-05-27_14h43.34.691,ratings_exp,2022.1.4,Win32,60.05645307
,,,,,,3.118055556,10.6667,5.222222222,10.3336,0,69,69,22,1,469865_sentence_1.wav,5f2f770677605936ed61db61,8,no,2022-05-27_14h43.34.691,ratings_exp,2022.1.4,Win32,60.05645307
,,,,,,6,12.0564,7.895833333,9.8166,0,70,70,3,1,469440_sentence_2.wav,5f2f770677605936ed61db61,8,no,2022-05-27_14h43.34.691,ratings_exp,2022.1.4,Win32,60.05645307
,,,,,,1.138888889,13.8774,1.527777778,15.0762,0,71,71,60,1,484573_sentence_1.wav,5f2f770677605936ed61db61,8,no,2022-05-27_14h43.34.691,ratings_exp,2022.1.4,Win32,60.05645307
,,,,,,4.25,15.2974,5.006944444,19.1769,0,72,72,21,1,469805_sentence_2.wav,5f2f770677605936ed61db61,8,no,2022-05-27_14h43.34.691,ratings_exp,2022.1.4,Win32,60.05645307
,,,,,,1.916666667,7.189,6.083333333,6.5216,0,73,73,66,1,485567_sentence_1.wav,5f2f770677605936ed61db61,8,no,2022-05-27_14h43.34.691,ratings_exp,2022.1.4,Win32,60.05645307
,,,,,,3.208333333,13.9377,4.486111111,19.348,0,74,74,63,1,484860_sentence_2.wav,5f2f770677605936ed61db61,8,no,2022-05-27_14h43.34.691,ratings_exp,2022.1.4,Win32,60.05645307
,,,,,,2.895833333,15.1956,2.215277778,17.7014,0,75,75,20,1,469805_sentence_1.wav,5f2f770677605936ed61db61,8,no,2022-05-27_14h43.34.691,ratings_exp,2022.1.4,Win32,60.05645307
,,,,,,1.902777778,51.018,2.520833333,13.2444,0,76,76,41,1,475707_sentence_2.wav,5f2f770677605936ed61db61,8,no,2022-05-27_14h43.34.691,ratings_exp,2022.1.4,Win32,60.05645307
,,,,,,3.444444444,12.5327,1.361111111,12.9761,0,77,77,15,1,469635_sentence_2.wav,5f2f770677605936ed61db61,8,no,2022-05-27_14h43.34.691,ratings_exp,2022.1.4,Win32,60.05645307
