key_resp.keys,key_resp.rt,eng_proficiency.response,eng_proficiency.rt,eng_proficiency_2.response,eng_proficiency_2.rt,accent_rating.response,accent_rating.rt,accent_rating_2.response,accent_rating_2.rt,trials.thisRepN,trials.thisTrialN,trials.thisN,trials.thisIndex,trials.ran,stim,participant,Cuántos años tenía cuando ud. empezó a aprender el inglés?,Ha enseñado el español cómo seguna lengua?,date,expName,psychopyVersion,OS,frameRate
space,22.187,1.03,7.564,4.057777778,4.248,5.995555556,14.882,8.093333333,9.277,0,0,0,3,1,469440_sentence_2.wav,60183e25b4423c05ee0ee791,15,no,2022-05-27_15h54.19.056,ratings_exp,2022.1.4,Win32,59.88023952
,,,,,,6.973333333,17.072,7.968888889,3.968,0,1,1,31,1,470408_sentence_2.wav,60183e25b4423c05ee0ee791,15,no,2022-05-27_15h54.19.056,ratings_exp,2022.1.4,Win32,59.88023952
,,,,,,8.031111111,10.795,7.035555556,10.364,0,2,2,70,1,485976_sentence_1.wav,60183e25b4423c05ee0ee791,15,no,2022-05-27_15h54.19.056,ratings_exp,2022.1.4,Win32,59.88023952
,,,,,,5.053333333,12.802,7.071111111,3.281,0,3,3,37,1,472263_sentence_2.wav,60183e25b4423c05ee0ee791,15,no,2022-05-27_15h54.19.056,ratings_exp,2022.1.4,Win32,59.88023952
,,,,,,5.995555556,19.411,6.937777778,7.272,0,4,4,43,1,477072_sentence_2.wav,60183e25b4423c05ee0ee791,15,no,2022-05-27_15h54.19.056,ratings_exp,2022.1.4,Win32,59.88023952
,,,,,,5.951111111,10.244,7.906666667,4.024,0,5,5,46,1,479904_sentence_1.wav,60183e25b4423c05ee0ee791,15,no,2022-05-27_15h54.19.056,ratings_exp,2022.1.4,Win32,59.88023952
,,,,,,7.08,12.264,5.133333333,11.579,0,6,6,15,1,469635_sentence_2.wav,60183e25b4423c05ee0ee791,15,no,2022-05-27_15h54.19.056,ratings_exp,2022.1.4,Win32,59.88023952
,,,,,,4.04,16.977,7,16.674,0,7,7,17,1,469639_sentence_2.wav,60183e25b4423c05ee0ee791,15,no,2022-05-27_15h54.19.056,ratings_exp,2022.1.4,Win32,59.88023952
,,,,,,8.973333333,12.935,8.955555556,8.074,0,8,8,32,1,470901_sentence_1.wav,60183e25b4423c05ee0ee791,15,no,2022-05-27_15h54.19.056,ratings_exp,2022.1.4,Win32,59.88023952
,,,,,,2.057777778,12.455,4.031111111,11.367,0,9,9,54,1,484271_sentence_1.wav,60183e25b4423c05ee0ee791,15,no,2022-05-27_15h54.19.056,ratings_exp,2022.1.4,Win32,59.88023952
,,,,,,5.968888889,11.763,7.977777778,8.648,0,10,10,75,1,487969_sentence_2.wav,60183e25b4423c05ee0ee791,15,no,2022-05-27_15h54.19.056,ratings_exp,2022.1.4,Win32,59.88023952
,,,,,,5.035555556,14.74,8.013333333,3.581,0,11,11,23,1,469865_sentence_2.wav,60183e25b4423c05ee0ee791,15,no,2022-05-27_15h54.19.056,ratings_exp,2022.1.4,Win32,59.88023952
,,,,,,6.048888889,11.746,8.048888889,2.028,0,12,12,74,1,487969_sentence_1.wav,60183e25b4423c05ee0ee791,15,no,2022-05-27_15h54.19.056,ratings_exp,2022.1.4,Win32,59.88023952
,,,,,,5.151111111,13.803,7.133333333,3.331,0,13,13,47,1,479904_sentence_2.wav,60183e25b4423c05ee0ee791,15,no,2022-05-27_15h54.19.056,ratings_exp,2022.1.4,Win32,59.88023952
,,,,,,6.928888889,13.349,8.057777778,2.201,0,14,14,18,1,469737_sentence_1.wav,60183e25b4423c05ee0ee791,15,no,2022-05-27_15h54.19.056,ratings_exp,2022.1.4,Win32,59.88023952
,,,,,,5.035555556,10.563,5.871111111,11.529,0,15,15,73,1,487696_sentence_2.wav,60183e25b4423c05ee0ee791,15,no,2022-05-27_15h54.19.056,ratings_exp,2022.1.4,Win32,59.88023952
,,,,,,5.035555556,7.804,8.928888889,5.872,0,16,16,71,1,485976_sentence_2.wav,60183e25b4423c05ee0ee791,15,no,2022-05-27_15h54.19.056,ratings_exp,2022.1.4,Win32,59.88023952
,,,,,,8.937777778,9.243,8.937777778,5.833,0,17,17,68,1,485605_sentence_1.wav,60183e25b4423c05ee0ee791,15,no,2022-05-27_15h54.19.056,ratings_exp,2022.1.4,Win32,59.88023952
,,,,,,7.115555556,12.014,8.173333333,4.172,0,18,18,0,1,469431_sentence_1.wav,60183e25b4423c05ee0ee791,15,no,2022-05-27_15h54.19.056,ratings_exp,2022.1.4,Win32,59.88023952
,,,,,,5.933333333,15.221,7.995555556,3.504,0,19,19,4,1,469495_sentence_1.wav,60183e25b4423c05ee0ee791,15,no,2022-05-27_15h54.19.056,ratings_exp,2022.1.4,Win32,59.88023952
,,,,,,5.995555556,11.98,6.031111111,7.688,0,20,20,53,1,481962_sentence_2.wav,60183e25b4423c05ee0ee791,15,no,2022-05-27_15h54.19.056,ratings_exp,2022.1.4,Win32,59.88023952
,,,,,,7.097777778,13.655,8.128888889,14.403,0,21,21,9,1,469558_sentence_2.wav,60183e25b4423c05ee0ee791,15,no,2022-05-27_15h54.19.056,ratings_exp,2022.1.4,Win32,59.88023952
,,,,,,5.017777778,11.583,4.991111111,14.426,0,22,22,61,1,484573_sentence_2.wav,60183e25b4423c05ee0ee791,15,no,2022-05-27_15h54.19.056,ratings_exp,2022.1.4,Win32,59.88023952
,,,,,,8.075555556,9.391,6.973333333,7.372,0,23,23,76,1,488322_sentence_1.wav,60183e25b4423c05ee0ee791,15,no,2022-05-27_15h54.19.056,ratings_exp,2022.1.4,Win32,59.88023952
,,,,,,5.977777778,17.556,8.093333333,2.747,0,24,24,29,1,469909_sentence_2.wav,60183e25b4423c05ee0ee791,15,no,2022-05-27_15h54.19.056,ratings_exp,2022.1.4,Win32,59.88023952
,,,,,,7.915555556,16.505,7.88,11.9,0,25,25,45,1,479845_sentence_2.wav,60183e25b4423c05ee0ee791,15,no,2022-05-27_15h54.19.056,ratings_exp,2022.1.4,Win32,59.88023952
,,,,,,8.973333333,16.806,8.991111111,3.019,0,26,26,24,1,469875_sentence_1.wav,60183e25b4423c05ee0ee791,15,no,2022-05-27_15h54.19.056,ratings_exp,2022.1.4,Win32,59.88023952
,,,,,,6.893333333,18.276,8.013333333,3.031,0,27,27,25,1,469875_sentence_2.wav,60183e25b4423c05ee0ee791,15,no,2022-05-27_15h54.19.056,ratings_exp,2022.1.4,Win32,59.88023952
,,,,,,6.911111111,18.945,6.937777778,16.526,0,28,28,20,1,469805_sentence_1.wav,60183e25b4423c05ee0ee791,15,no,2022-05-27_15h54.19.056,ratings_exp,2022.1.4,Win32,59.88023952
,,,,,,3.106666667,18.626,3.96,18.616,0,29,29,55,1,484271_sentence_2.wav,60183e25b4423c05ee0ee791,15,no,2022-05-27_15h54.19.056,ratings_exp,2022.1.4,Win32,59.88023952
,,,,,,2.075555556,10.126,4.857777778,10.996,0,30,30,58,1,484549_sentence_1.wav,60183e25b4423c05ee0ee791,15,no,2022-05-27_15h54.19.056,ratings_exp,2022.1.4,Win32,59.88023952
,,,,,,8.964444444,11.095,8.893333333,3.03,0,31,31,64,1,485507_sentence_1.wav,60183e25b4423c05ee0ee791,15,no,2022-05-27_15h54.19.056,ratings_exp,2022.1.4,Win32,59.88023952
,,,,,,4.964444444,17.36,5,12.348,0,32,32,59,1,484549_sentence_2.wav,60183e25b4423c05ee0ee791,15,no,2022-05-27_15h54.19.056,ratings_exp,2022.1.4,Win32,59.88023952
,,,,,,3.204444444,10.47,5.133333333,2.726,0,33,33,51,1,481532_sentence_2.wav,60183e25b4423c05ee0ee791,15,no,2022-05-27_15h54.19.056,ratings_exp,2022.1.4,Win32,59.88023952
,,,,,,8.911111111,12.43,8.884444444,3.648,0,34,34,40,1,475707_sentence_1.wav,60183e25b4423c05ee0ee791,15,no,2022-05-27_15h54.19.056,ratings_exp,2022.1.4,Win32,59.88023952
,,,,,,3.026666667,15.27,5.133333333,18.914,0,35,35,34,1,471720_sentence_1.wav,60183e25b4423c05ee0ee791,15,no,2022-05-27_15h54.19.056,ratings_exp,2022.1.4,Win32,59.88023952
,,,,,,7.053333333,11.696,8.075555556,2.145,0,36,36,67,1,485567_sentence_2.wav,60183e25b4423c05ee0ee791,15,no,2022-05-27_15h54.19.056,ratings_exp,2022.1.4,Win32,59.88023952
,,,,,,6.173333333,12.352,7.08,11.863,0,37,37,26,1,469883_sentence_1.wav,60183e25b4423c05ee0ee791,15,no,2022-05-27_15h54.19.056,ratings_exp,2022.1.4,Win32,59.88023952
,,,,,,6.973333333,14.539,8.937777778,3.832,0,38,38,21,1,469805_sentence_2.wav,60183e25b4423c05ee0ee791,15,no,2022-05-27_15h54.19.056,ratings_exp,2022.1.4,Win32,59.88023952
,,,,,,5.791111111,13.088,5.195555556,13.853,0,39,39,28,1,469909_sentence_1.wav,60183e25b4423c05ee0ee791,15,no,2022-05-27_15h54.19.056,ratings_exp,2022.1.4,Win32,59.88023952
,,,,,,5.826666667,17.242,7.933333333,5.635,0,40,40,22,1,469865_sentence_1.wav,60183e25b4423c05ee0ee791,15,no,2022-05-27_15h54.19.056,ratings_exp,2022.1.4,Win32,59.88023952
,,,,,,6.155555556,20.115,8.893333333,2.13,0,41,41,12,1,469614_sentence_1.wav,60183e25b4423c05ee0ee791,15,no,2022-05-27_15h54.19.056,ratings_exp,2022.1.4,Win32,59.88023952
,,,,,,6.831111111,18.063,8.182222222,3.448,0,42,42,57,1,484457_sentence_2.wav,60183e25b4423c05ee0ee791,15,no,2022-05-27_15h54.19.056,ratings_exp,2022.1.4,Win32,59.88023952
,,,,,,5.915555556,14.42,7.915555556,2.997,0,43,43,14,1,469635_sentence_1.wav,60183e25b4423c05ee0ee791,15,no,2022-05-27_15h54.19.056,ratings_exp,2022.1.4,Win32,59.88023952
,,,,,,6.768888889,13.707,8.955555556,2.901,0,44,44,36,1,472263_sentence_1.wav,60183e25b4423c05ee0ee791,15,no,2022-05-27_15h54.19.056,ratings_exp,2022.1.4,Win32,59.88023952
,,,,,,7.008888889,8.747,8.768888889,2.181,0,45,45,6,1,469553_sentence_1.wav,60183e25b4423c05ee0ee791,15,no,2022-05-27_15h54.19.056,ratings_exp,2022.1.4,Win32,59.88023952
,,,,,,8.911111111,11.386,8.911111111,1.058,0,46,46,1,1,469431_sentence_2.wav,60183e25b4423c05ee0ee791,15,no,2022-05-27_15h54.19.056,ratings_exp,2022.1.4,Win32,59.88023952
,,,,,,6.768888889,13.473,7.8,2.446,0,47,47,7,1,469553_sentence_2.wav,60183e25b4423c05ee0ee791,15,no,2022-05-27_15h54.19.056,ratings_exp,2022.1.4,Win32,59.88023952
,,,,,,6.173333333,17.374,7.035555556,1.903,0,48,48,19,1,469737_sentence_2.wav,60183e25b4423c05ee0ee791,15,no,2022-05-27_15h54.19.056,ratings_exp,2022.1.4,Win32,59.88023952
,,,,,,6.057777778,10.009,8.057777778,1.101,0,49,49,66,1,485567_sentence_1.wav,60183e25b4423c05ee0ee791,15,no,2022-05-27_15h54.19.056,ratings_exp,2022.1.4,Win32,59.88023952
,,,,,,3.942222222,16.742,4.173333333,4.818,0,50,50,8,1,469558_sentence_1.wav,60183e25b4423c05ee0ee791,15,no,2022-05-27_15h54.19.056,ratings_exp,2022.1.4,Win32,59.88023952
,,,,,,8.093333333,13.703,6.102222222,11.045,0,51,51,52,1,481962_sentence_1.wav,60183e25b4423c05ee0ee791,15,no,2022-05-27_15h54.19.056,ratings_exp,2022.1.4,Win32,59.88023952
,,,,,,3.053333333,13.049,5.062222222,3.384,0,52,52,35,1,471720_sentence_2.wav,60183e25b4423c05ee0ee791,15,no,2022-05-27_15h54.19.056,ratings_exp,2022.1.4,Win32,59.88023952
,,,,,,5.871111111,24.954,7.097777778,9.344,0,53,53,11,1,469581_sentence_2.wav,60183e25b4423c05ee0ee791,15,no,2022-05-27_15h54.19.056,ratings_exp,2022.1.4,Win32,59.88023952
,,,,,,8.973333333,6.487,8.911111111,1.127,0,54,54,77,1,488322_sentence_2.wav,60183e25b4423c05ee0ee791,15,no,2022-05-27_15h54.19.056,ratings_exp,2022.1.4,Win32,59.88023952
,,,,,,6.04,14.752,8.031111111,2.75,0,55,55,30,1,470408_sentence_1.wav,60183e25b4423c05ee0ee791,15,no,2022-05-27_15h54.19.056,ratings_exp,2022.1.4,Win32,59.88023952
,,,,,,6.075555556,99.652,8.022222222,5.602,0,56,56,5,1,469495_sentence_2.wav,60183e25b4423c05ee0ee791,15,no,2022-05-27_15h54.19.056,ratings_exp,2022.1.4,Win32,59.88023952
,,,,,,5.071111111,7.439,7,1.761,0,57,57,16,1,469639_sentence_1.wav,60183e25b4423c05ee0ee791,15,no,2022-05-27_15h54.19.056,ratings_exp,2022.1.4,Win32,59.88023952
,,,,,,4.022222222,10.414,6.04,2.829,0,58,58,50,1,481532_sentence_1.wav,60183e25b4423c05ee0ee791,15,no,2022-05-27_15h54.19.056,ratings_exp,2022.1.4,Win32,59.88023952
,,,,,,4.022222222,7.287,8.155555556,1.093,0,59,59,72,1,487696_sentence_1.wav,60183e25b4423c05ee0ee791,15,no,2022-05-27_15h54.19.056,ratings_exp,2022.1.4,Win32,59.88023952
,,,,,,8.893333333,6.372,8.928888889,1.226,0,60,60,49,1,480419_sentence_2.wav,60183e25b4423c05ee0ee791,15,no,2022-05-27_15h54.19.056,ratings_exp,2022.1.4,Win32,59.88023952
,,,,,,5.897777778,10.844,8.048888889,1.095,0,61,61,39,1,472268_sentence_2.wav,60183e25b4423c05ee0ee791,15,no,2022-05-27_15h54.19.056,ratings_exp,2022.1.4,Win32,59.88023952
,,,,,,3.115555556,15.945,4.875555556,1.518,0,62,62,62,1,484860_sentence_1.wav,60183e25b4423c05ee0ee791,15,no,2022-05-27_15h54.19.056,ratings_exp,2022.1.4,Win32,59.88023952
,,,,,,8.955555556,8.461,8.955555556,0.886,0,63,63,27,1,469883_sentence_2.wav,60183e25b4423c05ee0ee791,15,no,2022-05-27_15h54.19.056,ratings_exp,2022.1.4,Win32,59.88023952
,,,,,,5.977777778,10.733,8.955555556,2.162,0,64,64,38,1,472268_sentence_1.wav,60183e25b4423c05ee0ee791,15,no,2022-05-27_15h54.19.056,ratings_exp,2022.1.4,Win32,59.88023952
,,,,,,5.915555556,13.751,6.84,1.636,0,65,65,42,1,477072_sentence_1.wav,60183e25b4423c05ee0ee791,15,no,2022-05-27_15h54.19.056,ratings_exp,2022.1.4,Win32,59.88023952
,,,,,,4.928888889,15.588,7.097777778,1.194,0,66,66,63,1,484860_sentence_2.wav,60183e25b4423c05ee0ee791,15,no,2022-05-27_15h54.19.056,ratings_exp,2022.1.4,Win32,59.88023952
,,,,,,4.048888889,13.716,7.115555556,1.194,0,67,67,44,1,479845_sentence_1.wav,60183e25b4423c05ee0ee791,15,no,2022-05-27_15h54.19.056,ratings_exp,2022.1.4,Win32,59.88023952
,,,,,,4.92,11.414,6.902222222,1.962,0,68,68,65,1,485507_sentence_2.wav,60183e25b4423c05ee0ee791,15,no,2022-05-27_15h54.19.056,ratings_exp,2022.1.4,Win32,59.88023952
,,,,,,6.031111111,14.318,8.031111111,3.097,0,69,69,48,1,480419_sentence_1.wav,60183e25b4423c05ee0ee791,15,no,2022-05-27_15h54.19.056,ratings_exp,2022.1.4,Win32,59.88023952
,,,,,,8.831111111,9.392,8.831111111,0.993,0,70,70,33,1,470901_sentence_2.wav,60183e25b4423c05ee0ee791,15,no,2022-05-27_15h54.19.056,ratings_exp,2022.1.4,Win32,59.88023952
,,,,,,5.195555556,8.499,7.062222222,1.744,0,71,71,56,1,484457_sentence_1.wav,60183e25b4423c05ee0ee791,15,no,2022-05-27_15h54.19.056,ratings_exp,2022.1.4,Win32,59.88023952
,,,,,,8.982222222,9.31,8.955555556,0.912,0,72,72,2,1,469440_sentence_1.wav,60183e25b4423c05ee0ee791,15,no,2022-05-27_15h54.19.056,ratings_exp,2022.1.4,Win32,59.88023952
,,,,,,6.875555556,15.455,5.88,1.577,0,73,73,41,1,475707_sentence_2.wav,60183e25b4423c05ee0ee791,15,no,2022-05-27_15h54.19.056,ratings_exp,2022.1.4,Win32,59.88023952
,,,,,,8.697777778,13.951,8.893333333,2.397,0,74,74,13,1,469614_sentence_2.wav,60183e25b4423c05ee0ee791,15,no,2022-05-27_15h54.19.056,ratings_exp,2022.1.4,Win32,59.88023952
,,,,,,5.942222222,9.993,6.173333333,1.712,0,75,75,69,1,485605_sentence_2.wav,60183e25b4423c05ee0ee791,15,no,2022-05-27_15h54.19.056,ratings_exp,2022.1.4,Win32,59.88023952
,,,,,,5.088888889,13.688,6.288888889,5.017,0,76,76,10,1,469581_sentence_1.wav,60183e25b4423c05ee0ee791,15,no,2022-05-27_15h54.19.056,ratings_exp,2022.1.4,Win32,59.88023952
,,,,,,3.96,12.833,5.942222222,2.462,0,77,77,60,1,484573_sentence_1.wav,60183e25b4423c05ee0ee791,15,no,2022-05-27_15h54.19.056,ratings_exp,2022.1.4,Win32,59.88023952
