key_resp.keys,key_resp.rt,eng_proficiency.response,eng_proficiency.rt,eng_proficiency_2.response,eng_proficiency_2.rt,accent_rating.response,accent_rating.rt,accent_rating_2.response,accent_rating_2.rt,trials.thisRepN,trials.thisTrialN,trials.thisN,trials.thisIndex,trials.ran,stim,participant,Cuántos años tenía cuando ud. empezó a aprender el inglés?,Ha enseñado el español cómo seguna lengua?,date,expName,psychopyVersion,OS,frameRate
space,7.6673,2.1484375,3.6126,8.354166667,3.9522,2.645833333,3.2129,5.020833333,1.1706,0,0,0,22,1,469865_sentence_1.wav,6043f909d14273455e5e7436,3,yes,2022-05-27_15h58.10.853,ratings_exp,2022.1.4,Win32,20.03084751
,,,,,,3.5625,0.9518,2.229166667,0.6658,0,1,1,66,1,485567_sentence_1.wav,6043f909d14273455e5e7436,3,yes,2022-05-27_15h58.10.853,ratings_exp,2022.1.4,Win32,20.03084751
,,,,,,4.21875,0.783,5.416666667,0.7749,0,2,2,49,1,480419_sentence_2.wav,6043f909d14273455e5e7436,3,yes,2022-05-27_15h58.10.853,ratings_exp,2022.1.4,Win32,20.03084751
,,,,,,4.114583333,0.6937,2.604166667,0.6824,0,3,3,56,1,484457_sentence_1.wav,6043f909d14273455e5e7436,3,yes,2022-05-27_15h58.10.853,ratings_exp,2022.1.4,Win32,20.03084751
,,,,,,2.427083333,0.7953,5.21875,0.6845,0,4,4,28,1,469909_sentence_1.wav,6043f909d14273455e5e7436,3,yes,2022-05-27_15h58.10.853,ratings_exp,2022.1.4,Win32,20.03084751
,,,,,,2.895833333,0.685,6.395833333,0.991,0,5,5,71,1,485976_sentence_2.wav,6043f909d14273455e5e7436,3,yes,2022-05-27_15h58.10.853,ratings_exp,2022.1.4,Win32,20.03084751
,,,,,,2.833333333,1.4576,4.510416667,1.0662,0,6,6,68,1,485605_sentence_1.wav,6043f909d14273455e5e7436,3,yes,2022-05-27_15h58.10.853,ratings_exp,2022.1.4,Win32,20.03084751
,,,,,,2.75,1.102,4.21875,1.123,0,7,7,43,1,477072_sentence_2.wav,6043f909d14273455e5e7436,3,yes,2022-05-27_15h58.10.853,ratings_exp,2022.1.4,Win32,20.03084751
,,,,,,2.645833333,1.2946,2.645833333,0.6851,0,8,8,31,1,470408_sentence_2.wav,6043f909d14273455e5e7436,3,yes,2022-05-27_15h58.10.853,ratings_exp,2022.1.4,Win32,20.03084751
,,,,,,5.270833333,1.109,3.4375,1.2033,0,9,9,62,1,484860_sentence_1.wav,6043f909d14273455e5e7436,3,yes,2022-05-27_15h58.10.853,ratings_exp,2022.1.4,Win32,20.03084751
,,,,,,4.53125,1.1332,2.666666667,1.0803,0,10,10,69,1,485605_sentence_2.wav,6043f909d14273455e5e7436,3,yes,2022-05-27_15h58.10.853,ratings_exp,2022.1.4,Win32,20.03084751
,,,,,,4.427083333,1.0801,6.46875,0.8225,0,11,11,1,1,469431_sentence_2.wav,6043f909d14273455e5e7436,3,yes,2022-05-27_15h58.10.853,ratings_exp,2022.1.4,Win32,20.03084751
,,,,,,4.447916667,1.0406,2.958333333,1.0461,0,12,12,63,1,484860_sentence_2.wav,6043f909d14273455e5e7436,3,yes,2022-05-27_15h58.10.853,ratings_exp,2022.1.4,Win32,20.03084751
,,,,,,3.8125,1.0292,3.75,1.0019,0,13,13,33,1,470901_sentence_2.wav,6043f909d14273455e5e7436,3,yes,2022-05-27_15h58.10.853,ratings_exp,2022.1.4,Win32,20.03084751
,,,,,,2.333333333,1.0229,2.947916667,1.0799,0,14,14,52,1,481962_sentence_1.wav,6043f909d14273455e5e7436,3,yes,2022-05-27_15h58.10.853,ratings_exp,2022.1.4,Win32,20.03084751
,,,,,,5.010416667,1.0676,5.604166667,0.9456,0,15,15,36,1,472263_sentence_1.wav,6043f909d14273455e5e7436,3,yes,2022-05-27_15h58.10.853,ratings_exp,2022.1.4,Win32,20.03084751
,,,,,,3.90625,0.9021,5.270833333,1.1853,0,16,16,34,1,471720_sentence_1.wav,6043f909d14273455e5e7436,3,yes,2022-05-27_15h58.10.853,ratings_exp,2022.1.4,Win32,20.03084751
,,,,,,2.5,1.793,3.895833333,1.1008,0,17,17,25,1,469875_sentence_2.wav,6043f909d14273455e5e7436,3,yes,2022-05-27_15h58.10.853,ratings_exp,2022.1.4,Win32,20.03084751
,,,,,,4.447916667,1.2305,5.479166667,1.1496,0,18,18,67,1,485567_sentence_2.wav,6043f909d14273455e5e7436,3,yes,2022-05-27_15h58.10.853,ratings_exp,2022.1.4,Win32,20.03084751
,,,,,,4.322916667,1.3337,3.635416667,0.785,0,19,19,51,1,481532_sentence_2.wav,6043f909d14273455e5e7436,3,yes,2022-05-27_15h58.10.853,ratings_exp,2022.1.4,Win32,20.03084751
,,,,,,2.885416667,0.8027,2.885416667,1.5952,0,20,20,19,1,469737_sentence_2.wav,6043f909d14273455e5e7436,3,yes,2022-05-27_15h58.10.853,ratings_exp,2022.1.4,Win32,20.03084751
,,,,,,3.5625,1.0979,3.53125,0.9652,0,21,21,47,1,479904_sentence_2.wav,6043f909d14273455e5e7436,3,yes,2022-05-27_15h58.10.853,ratings_exp,2022.1.4,Win32,20.03084751
,,,,,,2.572916667,1.0447,3.166666667,0.8283,0,22,22,11,1,469581_sentence_2.wav,6043f909d14273455e5e7436,3,yes,2022-05-27_15h58.10.853,ratings_exp,2022.1.4,Win32,20.03084751
,,,,,,4.177083333,1.3578,2.979166667,0.6412,0,23,23,21,1,469805_sentence_2.wav,6043f909d14273455e5e7436,3,yes,2022-05-27_15h58.10.853,ratings_exp,2022.1.4,Win32,20.03084751
,,,,,,3.96875,1.0726,1.520833333,0.8661,0,24,24,77,1,488322_sentence_2.wav,6043f909d14273455e5e7436,3,yes,2022-05-27_15h58.10.853,ratings_exp,2022.1.4,Win32,20.03084751
,,,,,,3.583333333,1.9119,4.375,1.6613,0,25,25,13,1,469614_sentence_2.wav,6043f909d14273455e5e7436,3,yes,2022-05-27_15h58.10.853,ratings_exp,2022.1.4,Win32,20.03084751
,,,,,,4.59375,1.0675,1.895833333,1.2371,0,26,26,26,1,469883_sentence_1.wav,6043f909d14273455e5e7436,3,yes,2022-05-27_15h58.10.853,ratings_exp,2022.1.4,Win32,20.03084751
,,,,,,2.416666667,1.0413,5.635416667,1.6248,0,27,27,23,1,469865_sentence_2.wav,6043f909d14273455e5e7436,3,yes,2022-05-27_15h58.10.853,ratings_exp,2022.1.4,Win32,20.03084751
,,,,,,5.614583333,0.6314,6.604166667,0.9247,0,28,28,6,1,469553_sentence_1.wav,6043f909d14273455e5e7436,3,yes,2022-05-27_15h58.10.853,ratings_exp,2022.1.4,Win32,20.03084751
,,,,,,5.1875,0.6828,5.1875,0.7098,0,29,29,45,1,479845_sentence_2.wav,6043f909d14273455e5e7436,3,yes,2022-05-27_15h58.10.853,ratings_exp,2022.1.4,Win32,20.03084751
,,,,,,5.177083333,0.6388,3.71875,0.7467,0,30,30,75,1,487969_sentence_2.wav,6043f909d14273455e5e7436,3,yes,2022-05-27_15h58.10.853,ratings_exp,2022.1.4,Win32,20.03084751
,,,,,,3.729166667,0.6352,2.8125,0.7551,0,31,31,37,1,472263_sentence_2.wav,6043f909d14273455e5e7436,3,yes,2022-05-27_15h58.10.853,ratings_exp,2022.1.4,Win32,20.03084751
,,,,,,2.8125,0.6298,3.770833333,0.7876,0,32,32,46,1,479904_sentence_1.wav,6043f909d14273455e5e7436,3,yes,2022-05-27_15h58.10.853,ratings_exp,2022.1.4,Win32,20.03084751
,,,,,,3.770833333,0.6208,3.760416667,0.757,0,33,33,30,1,470408_sentence_1.wav,6043f909d14273455e5e7436,3,yes,2022-05-27_15h58.10.853,ratings_exp,2022.1.4,Win32,20.03084751
,,,,,,5.03125,0.9217,5.03125,0.6245,0,34,34,72,1,487696_sentence_1.wav,6043f909d14273455e5e7436,3,yes,2022-05-27_15h58.10.853,ratings_exp,2022.1.4,Win32,20.03084751
,,,,,,5.53125,1.9604,5.541666667,1.4211,0,35,35,15,1,469635_sentence_2.wav,6043f909d14273455e5e7436,3,yes,2022-05-27_15h58.10.853,ratings_exp,2022.1.4,Win32,20.03084751
,,,,,,3.729166667,4.0123,5.354166667,1.1483,0,36,36,24,1,469875_sentence_1.wav,6043f909d14273455e5e7436,3,yes,2022-05-27_15h58.10.853,ratings_exp,2022.1.4,Win32,20.03084751
,,,,,,2.572916667,1.8422,7.916666667,2.133,0,37,37,2,1,469440_sentence_1.wav,6043f909d14273455e5e7436,3,yes,2022-05-27_15h58.10.853,ratings_exp,2022.1.4,Win32,20.03084751
,,,,,,7.916666667,1.0427,1.90625,2.7211,0,38,38,14,1,469635_sentence_1.wav,6043f909d14273455e5e7436,3,yes,2022-05-27_15h58.10.853,ratings_exp,2022.1.4,Win32,20.03084751
,,,,,,7.9375,1.657,4.375,1.1891,0,39,39,70,1,485976_sentence_1.wav,6043f909d14273455e5e7436,3,yes,2022-05-27_15h58.10.853,ratings_exp,2022.1.4,Win32,20.03084751
,,,,,,1.8125,1.1628,1.8125,0.7095,0,40,40,60,1,484573_sentence_1.wav,6043f909d14273455e5e7436,3,yes,2022-05-27_15h58.10.853,ratings_exp,2022.1.4,Win32,20.03084751
,,,,,,6.177083333,1.0221,7.635416667,4.8329,0,41,41,17,1,469639_sentence_2.wav,6043f909d14273455e5e7436,3,yes,2022-05-27_15h58.10.853,ratings_exp,2022.1.4,Win32,20.03084751
,,,,,,5.71875,1.6601,5.71875,1.7784,0,42,42,64,1,485507_sentence_1.wav,6043f909d14273455e5e7436,3,yes,2022-05-27_15h58.10.853,ratings_exp,2022.1.4,Win32,20.03084751
,,,,,,3.5625,5.5021,2.614583333,2.9357,0,43,43,53,1,481962_sentence_2.wav,6043f909d14273455e5e7436,3,yes,2022-05-27_15h58.10.853,ratings_exp,2022.1.4,Win32,20.03084751
,,,,,,2.645833333,1.2638,3.40625,1.5273,0,44,44,54,1,484271_sentence_1.wav,6043f909d14273455e5e7436,3,yes,2022-05-27_15h58.10.853,ratings_exp,2022.1.4,Win32,20.03084751
,,,,,,5.21875,1.1681,7.65625,1.3294,0,45,45,18,1,469737_sentence_1.wav,6043f909d14273455e5e7436,3,yes,2022-05-27_15h58.10.853,ratings_exp,2022.1.4,Win32,20.03084751
,,,,,,1.979166667,1.7627,8.177083333,1.5375,0,46,46,55,1,484271_sentence_2.wav,6043f909d14273455e5e7436,3,yes,2022-05-27_15h58.10.853,ratings_exp,2022.1.4,Win32,20.03084751
,,,,,,1.854166667,1.3051,8.604166667,1.3123,0,47,47,59,1,484549_sentence_2.wav,6043f909d14273455e5e7436,3,yes,2022-05-27_15h58.10.853,ratings_exp,2022.1.4,Win32,20.03084751
,,,,,,1.09375,2.1906,7.9375,1.9732,0,48,48,41,1,475707_sentence_2.wav,6043f909d14273455e5e7436,3,yes,2022-05-27_15h58.10.853,ratings_exp,2022.1.4,Win32,20.03084751
,,,,,,2.791666667,1.7161,4.59375,2.4963,0,49,49,10,1,469581_sentence_1.wav,6043f909d14273455e5e7436,3,yes,2022-05-27_15h58.10.853,ratings_exp,2022.1.4,Win32,20.03084751
,,,,,,7.614583333,1.3662,4.989583333,1.1369,0,50,50,32,1,470901_sentence_1.wav,6043f909d14273455e5e7436,3,yes,2022-05-27_15h58.10.853,ratings_exp,2022.1.4,Win32,20.03084751
,,,,,,3.270833333,1.1458,8.875,1.0832,0,51,51,42,1,477072_sentence_1.wav,6043f909d14273455e5e7436,3,yes,2022-05-27_15h58.10.853,ratings_exp,2022.1.4,Win32,20.03084751
,,,,,,2.625,1.1676,4.697916667,0.9429,0,52,52,3,1,469440_sentence_2.wav,6043f909d14273455e5e7436,3,yes,2022-05-27_15h58.10.853,ratings_exp,2022.1.4,Win32,20.03084751
,,,,,,6.510416667,1.0992,3.322916667,0.9406,0,53,53,73,1,487696_sentence_2.wav,6043f909d14273455e5e7436,3,yes,2022-05-27_15h58.10.853,ratings_exp,2022.1.4,Win32,20.03084751
,,,,,,2.6875,1.0987,5.958333333,1.022,0,54,54,7,1,469553_sentence_2.wav,6043f909d14273455e5e7436,3,yes,2022-05-27_15h58.10.853,ratings_exp,2022.1.4,Win32,20.03084751
,,,,,,3.895833333,1.1563,2.40625,1.0854,0,55,55,50,1,481532_sentence_1.wav,6043f909d14273455e5e7436,3,yes,2022-05-27_15h58.10.853,ratings_exp,2022.1.4,Win32,20.03084751
,,,,,,5.447916667,1.2096,6.875,0.96,0,56,56,5,1,469495_sentence_2.wav,6043f909d14273455e5e7436,3,yes,2022-05-27_15h58.10.853,ratings_exp,2022.1.4,Win32,20.03084751
,,,,,,5.208333333,0.9411,2.479166667,1.0321,0,57,57,58,1,484549_sentence_1.wav,6043f909d14273455e5e7436,3,yes,2022-05-27_15h58.10.853,ratings_exp,2022.1.4,Win32,20.03084751
,,,,,,4.0625,1.1604,7.4375,1.44,0,58,58,76,1,488322_sentence_1.wav,6043f909d14273455e5e7436,3,yes,2022-05-27_15h58.10.853,ratings_exp,2022.1.4,Win32,20.03084751
,,,,,,4.46875,1.0618,2.291666667,1.1004,0,59,59,27,1,469883_sentence_2.wav,6043f909d14273455e5e7436,3,yes,2022-05-27_15h58.10.853,ratings_exp,2022.1.4,Win32,20.03084751
,,,,,,1.645833333,1.1189,3.708333333,0.7563,0,60,60,29,1,469909_sentence_2.wav,6043f909d14273455e5e7436,3,yes,2022-05-27_15h58.10.853,ratings_exp,2022.1.4,Win32,20.03084751
,,,,,,4.760416667,0.8499,4.729166667,0.9264,0,61,61,4,1,469495_sentence_1.wav,6043f909d14273455e5e7436,3,yes,2022-05-27_15h58.10.853,ratings_exp,2022.1.4,Win32,20.03084751
,,,,,,3.822916667,0.7576,3.760416667,0.6142,0,62,62,0,1,469431_sentence_1.wav,6043f909d14273455e5e7436,3,yes,2022-05-27_15h58.10.853,ratings_exp,2022.1.4,Win32,20.03084751
,,,,,,2.71875,0.8321,2.71875,0.7904,0,63,63,74,1,487969_sentence_1.wav,6043f909d14273455e5e7436,3,yes,2022-05-27_15h58.10.853,ratings_exp,2022.1.4,Win32,20.03084751
,,,,,,4.041666667,1.0241,4.958333333,0.8977,0,64,64,65,1,485507_sentence_2.wav,6043f909d14273455e5e7436,3,yes,2022-05-27_15h58.10.853,ratings_exp,2022.1.4,Win32,20.03084751
,,,,,,6.072916667,1.2301,7.458333333,1.507,0,65,65,39,1,472268_sentence_2.wav,6043f909d14273455e5e7436,3,yes,2022-05-27_15h58.10.853,ratings_exp,2022.1.4,Win32,20.03084751
,,,,,,7.458333333,1.1225,5.270833333,1.0033,0,66,66,20,1,469805_sentence_1.wav,6043f909d14273455e5e7436,3,yes,2022-05-27_15h58.10.853,ratings_exp,2022.1.4,Win32,20.03084751
,,,,,,3.1875,0.9002,1.697916667,2.4013,0,67,67,61,1,484573_sentence_2.wav,6043f909d14273455e5e7436,3,yes,2022-05-27_15h58.10.853,ratings_exp,2022.1.4,Win32,20.03084751
,,,,,,3.75,1.532,5.9375,1.8819,0,68,68,8,1,469558_sentence_1.wav,6043f909d14273455e5e7436,3,yes,2022-05-27_15h58.10.853,ratings_exp,2022.1.4,Win32,20.03084751
,,,,,,7.583333333,1.2145,3.666666667,1.3084,0,69,69,40,1,475707_sentence_1.wav,6043f909d14273455e5e7436,3,yes,2022-05-27_15h58.10.853,ratings_exp,2022.1.4,Win32,20.03084751
,,,,,,2.375,1.2023,5.8125,1.5657,0,70,70,12,1,469614_sentence_1.wav,6043f909d14273455e5e7436,3,yes,2022-05-27_15h58.10.853,ratings_exp,2022.1.4,Win32,20.03084751
,,,,,,7,1.1271,2.15625,1.3059,0,71,71,16,1,469639_sentence_1.wav,6043f909d14273455e5e7436,3,yes,2022-05-27_15h58.10.853,ratings_exp,2022.1.4,Win32,20.03084751
,,,,,,4.864583333,1.4067,2.46875,1.183,0,72,72,44,1,479845_sentence_1.wav,6043f909d14273455e5e7436,3,yes,2022-05-27_15h58.10.853,ratings_exp,2022.1.4,Win32,20.03084751
,,,,,,3.6875,2.495,5.302083333,1.507,0,73,73,35,1,471720_sentence_2.wav,6043f909d14273455e5e7436,3,yes,2022-05-27_15h58.10.853,ratings_exp,2022.1.4,Win32,20.03084751
,,,,,,6.197916667,1.7376,6.572916667,3.2711,0,74,74,57,1,484457_sentence_2.wav,6043f909d14273455e5e7436,3,yes,2022-05-27_15h58.10.853,ratings_exp,2022.1.4,Win32,20.03084751
,,,,,,6.572916667,1.5619,6.572916667,1.6431,0,75,75,9,1,469558_sentence_2.wav,6043f909d14273455e5e7436,3,yes,2022-05-27_15h58.10.853,ratings_exp,2022.1.4,Win32,20.03084751
,,,,,,6.375,2.2953,4.145833333,1.5113,0,76,76,48,1,480419_sentence_1.wav,6043f909d14273455e5e7436,3,yes,2022-05-27_15h58.10.853,ratings_exp,2022.1.4,Win32,20.03084751
,,,,,,2.208333333,1.3486,2.177083333,1.1502,0,77,77,38,1,472268_sentence_1.wav,6043f909d14273455e5e7436,3,yes,2022-05-27_15h58.10.853,ratings_exp,2022.1.4,Win32,20.03084751
