key_resp.keys,key_resp.rt,eng_proficiency.response,eng_proficiency.rt,eng_proficiency_2.response,eng_proficiency_2.rt,accent_rating.response,accent_rating.rt,accent_rating_2.response,accent_rating_2.rt,trials.thisRepN,trials.thisTrialN,trials.thisN,trials.thisIndex,trials.ran,stim,participant,Cuántos años tenía cuando ud. empezó a aprender el inglés?,Ha enseñado el español cómo seguna lengua?,date,expName,psychopyVersion,OS,frameRate
space,4.6216,7.018516141,2.604,7.013066195,1.6175,3.008628055,15.9321,5.822892389,1.208,0,0,0,11,1,469581_sentence_2.wav,6047b38939f7610352261d47,15,Sí,2022-05-27_16h08.44.299,ratings_exp,2022.1.4,Win32,165.5903295
,,,,,,2.97143499,7.5422,6.982072093,1.2681,0,1,1,73,1,487696_sentence_2.wav,6047b38939f7610352261d47,15,Sí,2022-05-27_16h08.44.299,ratings_exp,2022.1.4,Win32,165.5903295
,,,,,,2.965236264,9.7178,5.977862899,2.0345,0,2,2,9,1,469558_sentence_2.wav,6047b38939f7610352261d47,15,Sí,2022-05-27_16h08.44.299,ratings_exp,2022.1.4,Win32,165.5903295
,,,,,,2.990031404,12.0489,6.021254926,1.3247,0,3,3,5,1,469495_sentence_2.wav,6047b38939f7610352261d47,15,Sí,2022-05-27_16h08.44.299,ratings_exp,2022.1.4,Win32,165.5903295
,,,,,,4.000439087,6.2492,8.023473642,1.2532,0,4,4,66,1,485567_sentence_1.wav,6047b38939f7610352261d47,15,Sí,2022-05-27_16h08.44.299,ratings_exp,2022.1.4,Win32,165.5903295
,,,,,,3.039622157,8.7962,8.01107619,1.9126,0,5,5,22,1,469865_sentence_1.wav,6047b38939f7610352261d47,15,Sí,2022-05-27_16h08.44.299,ratings_exp,2022.1.4,Win32,165.5903295
,,,,,,3.027224469,5.392,6.994469545,1.6953,0,6,6,44,1,479845_sentence_1.wav,6047b38939f7610352261d47,15,Sí,2022-05-27_16h08.44.299,ratings_exp,2022.1.4,Win32,165.5903295
,,,,,,2.990031404,8.2492,7.006866996,1.7379,0,7,7,45,1,479845_sentence_2.wav,6047b38939f7610352261d47,15,Sí,2022-05-27_16h08.44.299,ratings_exp,2022.1.4,Win32,165.5903295
,,,,,,7.99247954,10.5583,7.99247954,0.7193,0,8,8,64,1,485507_sentence_1.wav,6047b38939f7610352261d47,15,Sí,2022-05-27_16h08.44.299,ratings_exp,2022.1.4,Win32,165.5903295
,,,,,,3.027224469,5.3916,8.916104351,1.4962,0,9,9,72,1,487696_sentence_1.wav,6047b38939f7610352261d47,15,Sí,2022-05-27_16h08.44.299,ratings_exp,2022.1.4,Win32,165.5903295
,,,,,,5.004648281,8.9717,8.079263593,0.9037,0,10,10,47,1,479904_sentence_2.wav,6047b38939f7610352261d47,15,Sí,2022-05-27_16h08.44.299,ratings_exp,2022.1.4,Win32,165.5903295
,,,,,,2.029214237,5.8245,5.977862899,1.0636,0,11,11,54,1,484271_sentence_1.wav,6047b38939f7610352261d47,15,Sí,2022-05-27_16h08.44.299,ratings_exp,2022.1.4,Win32,165.5903295
,,,,,,7.006866996,7.7653,8.885110249,1.6332,0,12,12,77,1,488322_sentence_2.wav,6047b38939f7610352261d47,15,Sí,2022-05-27_16h08.44.299,ratings_exp,2022.1.4,Win32,165.5903295
,,,,,,2.016816786,8.5191,6.944878792,1.6527,0,13,13,17,1,469639_sentence_2.wav,6047b38939f7610352261d47,15,Sí,2022-05-27_16h08.44.299,ratings_exp,2022.1.4,Win32,165.5903295
,,,,,,2.959037302,3.9086,5.977862899,1.7929,0,14,14,58,1,484549_sentence_1.wav,6047b38939f7610352261d47,15,Sí,2022-05-27_16h08.44.299,ratings_exp,2022.1.4,Win32,165.5903295
,,,,,,4.019035738,7.8973,8.017275389,1.3019,0,15,15,16,1,469639_sentence_1.wav,6047b38939f7610352261d47,15,Sí,2022-05-27_16h08.44.299,ratings_exp,2022.1.4,Win32,165.5903295
,,,,,,2.94663985,12.519,6.969674168,2.2976,0,16,16,37,1,472263_sentence_2.wav,6047b38939f7610352261d47,15,Sí,2022-05-27_16h08.44.299,ratings_exp,2022.1.4,Win32,165.5903295
,,,,,,6.046049829,15.7741,8.32721641,0.9796,0,17,17,29,1,469909_sentence_2.wav,6047b38939f7610352261d47,15,Sí,2022-05-27_16h08.44.299,ratings_exp,2022.1.4,Win32,165.5903295
,,,,,,1.998220135,8.8395,3.963246259,3.3965,0,18,18,35,1,471720_sentence_2.wav,6047b38939f7610352261d47,15,Sí,2022-05-27_16h08.44.299,ratings_exp,2022.1.4,Win32,165.5903295
,,,,,,7.998678738,11.4203,8.965694158,1.0407,0,19,19,13,1,469614_sentence_2.wav,6047b38939f7610352261d47,15,Sí,2022-05-27_16h08.44.299,ratings_exp,2022.1.4,Win32,165.5903295
,,,,,,2.977633952,8.8846,6.839499034,1.0986,0,20,20,70,1,485976_sentence_1.wav,6047b38939f7610352261d47,15,Sí,2022-05-27_16h08.44.299,ratings_exp,2022.1.4,Win32,165.5903295
,,,,,,2.072606028,10.5444,6.957276717,1.7477,0,21,21,61,1,484573_sentence_2.wav,6047b38939f7610352261d47,15,Sí,2022-05-27_16h08.44.299,ratings_exp,2022.1.4,Win32,165.5903295
,,,,,,3.926053431,12.5353,7.037861099,1.0487,0,22,22,42,1,477072_sentence_1.wav,6047b38939f7610352261d47,15,Sí,2022-05-27_16h08.44.299,ratings_exp,2022.1.4,Win32,165.5903295
,,,,,,8.947098454,7.8086,8.965694158,0.7233,0,23,23,2,1,469440_sentence_1.wav,6047b38939f7610352261d47,15,Sí,2022-05-27_16h08.44.299,ratings_exp,2022.1.4,Win32,165.5903295
,,,,,,2.016816786,8.8116,5.92827262,2.9315,0,24,24,60,1,484573_sentence_1.wav,6047b38939f7610352261d47,15,Sí,2022-05-27_16h08.44.299,ratings_exp,2022.1.4,Win32,165.5903295
,,,,,,2.029214237,8.0103,4.979852904,1.6844,0,25,25,51,1,481532_sentence_2.wav,6047b38939f7610352261d47,15,Sí,2022-05-27_16h08.44.299,ratings_exp,2022.1.4,Win32,165.5903295
,,,,,,8.947098454,5.3855,8.947098454,0.5981,0,26,26,27,1,469883_sentence_2.wav,6047b38939f7610352261d47,15,Sí,2022-05-27_16h08.44.299,ratings_exp,2022.1.4,Win32,165.5903295
,,,,,,8.965694158,8.3917,8.965694158,0.5532,0,27,27,49,1,480419_sentence_2.wav,6047b38939f7610352261d47,15,Sí,2022-05-27_16h08.44.299,ratings_exp,2022.1.4,Win32,165.5903295
,,,,,,4.942660076,15.8227,7.973882889,1.1844,0,28,28,21,1,469805_sentence_2.wav,6047b38939f7610352261d47,15,Sí,2022-05-27_16h08.44.299,ratings_exp,2022.1.4,Win32,165.5903295
,,,,,,4.992250356,8.6926,6.015055727,1.2984,0,29,29,53,1,481962_sentence_2.wav,6047b38939f7610352261d47,15,Sí,2022-05-27_16h08.44.299,ratings_exp,2022.1.4,Win32,165.5903295
,,,,,,5.147220867,10.5587,7.924293082,1.1122,0,30,30,6,1,469553_sentence_1.wav,6047b38939f7610352261d47,15,Sí,2022-05-27_16h08.44.299,ratings_exp,2022.1.4,Win32,165.5903295
,,,,,,7.99247954,9.7735,8.885110249,0.8701,0,31,31,26,1,469883_sentence_1.wav,6047b38939f7610352261d47,15,Sí,2022-05-27_16h08.44.299,ratings_exp,2022.1.4,Win32,165.5903295
,,,,,,4.948858802,12.0103,8.042070292,1.1991,0,32,32,36,1,472263_sentence_1.wav,6047b38939f7610352261d47,15,Sí,2022-05-27_16h08.44.299,ratings_exp,2022.1.4,Win32,165.5903295
,,,,,,1.880442689,13.4402,5.965465448,1.6489,0,33,33,34,1,471720_sentence_1.wav,6047b38939f7610352261d47,15,Sí,2022-05-27_16h08.44.299,ratings_exp,2022.1.4,Win32,165.5903295
,,,,,,2.940440888,5.7284,6.101839308,1.3794,0,34,34,15,1,469635_sentence_2.wav,6047b38939f7610352261d47,15,Sí,2022-05-27_16h08.44.299,ratings_exp,2022.1.4,Win32,165.5903295
,,,,,,3.058218571,11.2497,4.967455453,1.1609,0,35,35,50,1,481532_sentence_1.wav,6047b38939f7610352261d47,15,Sí,2022-05-27_16h08.44.299,ratings_exp,2022.1.4,Win32,165.5903295
,,,,,,3.926053431,8.1518,6.926282615,1.3242,0,36,36,71,1,485976_sentence_2.wav,6047b38939f7610352261d47,15,Sí,2022-05-27_16h08.44.299,ratings_exp,2022.1.4,Win32,165.5903295
,,,,,,3.938450883,14.2905,7.918093884,1.3334,0,37,37,39,1,472268_sentence_2.wav,6047b38939f7610352261d47,15,Sí,2022-05-27_16h08.44.299,ratings_exp,2022.1.4,Win32,165.5903295
,,,,,,5.909675969,12.1501,8.110257695,1.4258,0,38,38,25,1,469875_sentence_2.wav,6047b38939f7610352261d47,15,Sí,2022-05-27_16h08.44.299,ratings_exp,2022.1.4,Win32,165.5903295
,,,,,,4.961256254,11.5208,8.042070292,1.26,0,39,39,32,1,470901_sentence_1.wav,6047b38939f7610352261d47,15,Sí,2022-05-27_16h08.44.299,ratings_exp,2022.1.4,Win32,165.5903295
,,,,,,2.983832678,14.1945,5.079033937,1.1934,0,40,40,62,1,484860_sentence_1.wav,6047b38939f7610352261d47,15,Sí,2022-05-27_16h08.44.299,ratings_exp,2022.1.4,Win32,165.5903295
,,,,,,4.025234463,12.2719,7.068855201,1.2842,0,41,41,63,1,484860_sentence_2.wav,6047b38939f7610352261d47,15,Sí,2022-05-27_16h08.44.299,ratings_exp,2022.1.4,Win32,165.5903295
,,,,,,4.967455453,12.0461,7.155638781,0.9771,0,42,42,19,1,469737_sentence_2.wav,6047b38939f7610352261d47,15,Sí,2022-05-27_16h08.44.299,ratings_exp,2022.1.4,Win32,165.5903295
,,,,,,1.917635517,10.6064,8.097859298,1.4597,0,43,43,23,1,469865_sentence_2.wav,6047b38939f7610352261d47,15,Sí,2022-05-27_16h08.44.299,ratings_exp,2022.1.4,Win32,165.5903295
,,,,,,2.952838576,7.0069,7.075054399,1.0706,0,44,44,74,1,487969_sentence_1.wav,6047b38939f7610352261d47,15,Sí,2022-05-27_16h08.44.299,ratings_exp,2022.1.4,Win32,165.5903295
,,,,,,2.233775501,5.788,7.075054399,1.1306,0,45,45,56,1,484457_sentence_1.wav,6047b38939f7610352261d47,15,Sí,2022-05-27_16h08.44.299,ratings_exp,2022.1.4,Win32,165.5903295
,,,,,,3.064417297,4.6102,7.89329898,1.1756,0,46,46,57,1,484457_sentence_2.wav,6047b38939f7610352261d47,15,Sí,2022-05-27_16h08.44.299,ratings_exp,2022.1.4,Win32,165.5903295
,,,,,,2.115997818,6.9643,5.060437759,1.497,0,47,47,55,1,484271_sentence_2.wav,6047b38939f7610352261d47,15,Sí,2022-05-27_16h08.44.299,ratings_exp,2022.1.4,Win32,165.5903295
,,,,,,2.14699192,7.4144,6.250611093,1.2044,0,48,48,8,1,469558_sentence_1.wav,6047b38939f7610352261d47,15,Sí,2022-05-27_16h08.44.299,ratings_exp,2022.1.4,Win32,165.5903295
,,,,,,3.027224469,10.9259,7.99247954,1.2429,0,49,49,40,1,475707_sentence_1.wav,6047b38939f7610352261d47,15,Sí,2022-05-27_16h08.44.299,ratings_exp,2022.1.4,Win32,165.5903295
,,,,,,3.957047533,9.8184,7.998678738,1.3781,0,50,50,10,1,469581_sentence_1.wav,6047b38939f7610352261d47,15,Sí,2022-05-27_16h08.44.299,ratings_exp,2022.1.4,Win32,165.5903295
,,,,,,2.915645748,7.096,6.225815717,1.1228,0,51,51,14,1,469635_sentence_1.wav,6047b38939f7610352261d47,15,Sí,2022-05-27_16h08.44.299,ratings_exp,2022.1.4,Win32,165.5903295
,,,,,,8.990490007,8.1356,8.990490007,0.628,0,52,52,68,1,485605_sentence_1.wav,6047b38939f7610352261d47,15,Sí,2022-05-27_16h08.44.299,ratings_exp,2022.1.4,Win32,165.5903295
,,,,,,8.060666943,15.3306,8.866513599,0.7515,0,53,53,12,1,469614_sentence_1.wav,6047b38939f7610352261d47,15,Sí,2022-05-27_16h08.44.299,ratings_exp,2022.1.4,Win32,165.5903295
,,,,,,3.064417297,9.9799,7.868503131,1.2012,0,54,54,67,1,485567_sentence_2.wav,6047b38939f7610352261d47,15,Sí,2022-05-27_16h08.44.299,ratings_exp,2022.1.4,Win32,165.5903295
,,,,,,2.066407302,8.595,7.087451851,1.1668,0,55,55,65,1,485507_sentence_2.wav,6047b38939f7610352261d47,15,Sí,2022-05-27_16h08.44.299,ratings_exp,2022.1.4,Win32,165.5903295
,,,,,,1.855647312,4.8188,5.953067523,1.1981,0,56,56,59,1,484549_sentence_2.wav,6047b38939f7610352261d47,15,Sí,2022-05-27_16h08.44.299,ratings_exp,2022.1.4,Win32,165.5903295
,,,,,,8.02967284,13.8636,8.947098454,1.0585,0,57,57,24,1,469875_sentence_1.wav,6047b38939f7610352261d47,15,Sí,2022-05-27_16h08.44.299,ratings_exp,2022.1.4,Win32,165.5903295
,,,,,,8.054467744,18.7722,8.054467744,0.7393,0,58,58,31,1,470408_sentence_2.wav,6047b38939f7610352261d47,15,Sí,2022-05-27_16h08.44.299,ratings_exp,2022.1.4,Win32,165.5903295
,,,,,,3.027224469,11.4989,8.048269491,1.2709,0,59,59,4,1,469495_sentence_1.wav,6047b38939f7610352261d47,15,Sí,2022-05-27_16h08.44.299,ratings_exp,2022.1.4,Win32,165.5903295
,,,,,,3.027224469,12.2538,7.99247954,6.9344,0,60,60,69,1,485605_sentence_2.wav,6047b38939f7610352261d47,15,Sí,2022-05-27_16h08.44.299,ratings_exp,2022.1.4,Win32,165.5903295
,,,,,,3.027224469,14.0926,8.054467744,1.0568,0,61,61,41,1,475707_sentence_2.wav,6047b38939f7610352261d47,15,Sí,2022-05-27_16h08.44.299,ratings_exp,2022.1.4,Win32,165.5903295
,,,,,,6.021254926,11.5475,8.854116147,1.0248,0,62,62,48,1,480419_sentence_1.wav,6047b38939f7610352261d47,15,Sí,2022-05-27_16h08.44.299,ratings_exp,2022.1.4,Win32,165.5903295
,,,,,,5.959266722,14.8403,8.02967284,1.2572,0,63,63,20,1,469805_sentence_1.wav,6047b38939f7610352261d47,15,Sí,2022-05-27_16h08.44.299,ratings_exp,2022.1.4,Win32,165.5903295
,,,,,,8.054467744,8.5036,8.922302604,2.8356,0,64,64,3,1,469440_sentence_2.wav,6047b38939f7610352261d47,15,Sí,2022-05-27_16h08.44.299,ratings_exp,2022.1.4,Win32,165.5903295
,,,,,,3.988041635,11.3194,8.984290809,1.0989,0,65,65,0,1,469431_sentence_1.wav,6047b38939f7610352261d47,15,Sí,2022-05-27_16h08.44.299,ratings_exp,2022.1.4,Win32,165.5903295
,,,,,,4.000439087,10.3164,7.880900583,1.1771,0,66,66,28,1,469909_sentence_1.wav,6047b38939f7610352261d47,15,Sí,2022-05-27_16h08.44.299,ratings_exp,2022.1.4,Win32,165.5903295
,,,,,,2.977633952,9.2525,6.982072093,1.6594,0,67,67,7,1,469553_sentence_2.wav,6047b38939f7610352261d47,15,Sí,2022-05-27_16h08.44.299,ratings_exp,2022.1.4,Win32,165.5903295
,,,,,,3.957047533,8.8106,6.027453652,1.2142,0,68,68,43,1,477072_sentence_2.wav,6047b38939f7610352261d47,15,Sí,2022-05-27_16h08.44.299,ratings_exp,2022.1.4,Win32,165.5903295
,,,,,,5.984061625,9.0712,8.060666943,1.5537,0,69,69,75,1,487969_sentence_2.wav,6047b38939f7610352261d47,15,Sí,2022-05-27_16h08.44.299,ratings_exp,2022.1.4,Win32,165.5903295
,,,,,,3.126405501,9.0883,7.980082088,1.0703,0,70,70,38,1,472268_sentence_1.wav,6047b38939f7610352261d47,15,Sí,2022-05-27_16h08.44.299,ratings_exp,2022.1.4,Win32,165.5903295
,,,,,,2.983832678,6.6869,7.137042604,1.1859,0,71,71,52,1,481962_sentence_1.wav,6047b38939f7610352261d47,15,Sí,2022-05-27_16h08.44.299,ratings_exp,2022.1.4,Win32,165.5903295
,,,,,,4.062427291,12.5373,7.955287184,1.1386,0,72,72,18,1,469737_sentence_1.wav,6047b38939f7610352261d47,15,Sí,2022-05-27_16h08.44.299,ratings_exp,2022.1.4,Win32,165.5903295
,,,,,,6.06464648,11.2889,8.079263593,0.9656,0,73,73,76,1,488322_sentence_1.wav,6047b38939f7610352261d47,15,Sí,2022-05-27_16h08.44.299,ratings_exp,2022.1.4,Win32,165.5903295
,,,,,,3.045820883,8.1212,8.004876991,1.0888,0,74,74,1,1,469431_sentence_2.wav,6047b38939f7610352261d47,15,Sí,2022-05-27_16h08.44.299,ratings_exp,2022.1.4,Win32,165.5903295
,,,,,,5.971664173,12.5237,8.265228206,0.7254,0,75,75,30,1,470408_sentence_1.wav,6047b38939f7610352261d47,15,Sí,2022-05-27_16h08.44.299,ratings_exp,2022.1.4,Win32,165.5903295
,,,,,,6.994469545,10.5501,8.333414663,0.7366,0,76,76,33,1,470901_sentence_2.wav,6047b38939f7610352261d47,15,Sí,2022-05-27_16h08.44.299,ratings_exp,2022.1.4,Win32,165.5903295
,,,,,,3.98184291,9.4225,7.397392873,0.8546,0,77,77,46,1,479904_sentence_1.wav,6047b38939f7610352261d47,15,Sí,2022-05-27_16h08.44.299,ratings_exp,2022.1.4,Win32,165.5903295
