key_resp.keys,key_resp.rt,eng_proficiency.response,eng_proficiency.rt,eng_proficiency_2.response,eng_proficiency_2.rt,accent_rating.response,accent_rating.rt,accent_rating_2.response,accent_rating_2.rt,trials.thisRepN,trials.thisTrialN,trials.thisN,trials.thisIndex,trials.ran,stim,participant,Cuántos años tenía cuando ud. empezó a aprender el inglés?,Ha enseñado el español cómo seguna lengua?,date,expName,psychopyVersion,OS,frameRate
space,77.9966,6.931250572,6.9018,6.950000339,6.0234,2.933333503,21.21,6.066666497,11.0462,0,0,0,77,1,488322_sentence_2.wav,6047b38939f7610352261d47,15,Sí,2022-05-27_15h44.42.509,ratings_exp,2022.1.4,Win32,167.1681712
,,,,,,4.022222731,14.6917,8.988889058,4.6199,0,1,1,28,1,469909_sentence_1.wav,6047b38939f7610352261d47,15,Sí,2022-05-27_15h44.42.509,ratings_exp,2022.1.4,Win32,167.1681712
,,,,,,3.033333672,13.6268,6.91111162,11.4749,0,2,2,9,1,469558_sentence_2.wav,6047b38939f7610352261d47,15,Sí,2022-05-27_15h44.42.509,ratings_exp,2022.1.4,Win32,167.1681712
,,,,,,6.950000339,15.1637,6.055555556,12.727,0,3,3,33,1,470901_sentence_2.wav,6047b38939f7610352261d47,15,Sí,2022-05-27_15h44.42.509,ratings_exp,2022.1.4,Win32,167.1681712
,,,,,,4.022222731,11.3844,4.872222053,4.2371,0,4,4,52,1,481962_sentence_1.wav,6047b38939f7610352261d47,15,Sí,2022-05-27_15h44.42.509,ratings_exp,2022.1.4,Win32,167.1681712
,,,,,,4.977778117,12.0196,6.972222222,3.1142,0,5,5,37,1,472263_sentence_2.wav,6047b38939f7610352261d47,15,Sí,2022-05-27_15h44.42.509,ratings_exp,2022.1.4,Win32,167.1681712
,,,,,,3.988889058,10.1776,4.938889398,5.0536,0,6,6,53,1,481962_sentence_2.wav,6047b38939f7610352261d47,15,Sí,2022-05-27_15h44.42.509,ratings_exp,2022.1.4,Win32,167.1681712
,,,,,,2.961111281,15.1454,6.038888719,1.2745,0,7,7,8,1,469558_sentence_1.wav,6047b38939f7610352261d47,15,Sí,2022-05-27_15h44.42.509,ratings_exp,2022.1.4,Win32,167.1681712
,,,,,,5.094444275,11.6513,6.972222222,2.2769,0,8,8,7,1,469553_sentence_2.wav,6047b38939f7610352261d47,15,Sí,2022-05-27_15h44.42.509,ratings_exp,2022.1.4,Win32,167.1681712
,,,,,,6.022222731,16.9933,7.955555386,2.7295,0,9,9,29,1,469909_sentence_2.wav,6047b38939f7610352261d47,15,Sí,2022-05-27_15h44.42.509,ratings_exp,2022.1.4,Win32,167.1681712
,,,,,,4.955555386,15.8879,7.994444953,5.2406,0,10,10,44,1,479845_sentence_1.wav,6047b38939f7610352261d47,15,Sí,2022-05-27_15h44.42.509,ratings_exp,2022.1.4,Win32,167.1681712
,,,,,,7.016666836,17.2651,8.938889398,2.4585,0,11,11,12,1,469614_sentence_1.wav,6047b38939f7610352261d47,15,Sí,2022-05-27_15h44.42.509,ratings_exp,2022.1.4,Win32,167.1681712
,,,,,,3.011110942,11.8462,7.972222222,2.1735,0,12,12,5,1,469495_sentence_2.wav,6047b38939f7610352261d47,15,Sí,2022-05-27_15h44.42.509,ratings_exp,2022.1.4,Win32,167.1681712
,,,,,,1.011111365,8.7336,8.955555386,1.4393,0,13,13,27,1,469883_sentence_2.wav,6047b38939f7610352261d47,15,Sí,2022-05-27_15h44.42.509,ratings_exp,2022.1.4,Win32,167.1681712
,,,,,,1.966666751,11.3078,2.988889058,2.6703,0,14,14,55,1,484271_sentence_2.wav,6047b38939f7610352261d47,15,Sí,2022-05-27_15h44.42.509,ratings_exp,2022.1.4,Win32,167.1681712
,,,,,,1,15.146,4,4.5668,0,15,15,20,1,469805_sentence_1.wav,6047b38939f7610352261d47,15,Sí,2022-05-27_15h44.42.509,ratings_exp,2022.1.4,Win32,167.1681712
,,,,,,2.027777778,14.9864,6.050000509,1.6404,0,16,16,60,1,484573_sentence_1.wav,6047b38939f7610352261d47,15,Sí,2022-05-27_15h44.42.509,ratings_exp,2022.1.4,Win32,167.1681712
,,,,,,4.950000339,13.2404,7.888888889,1.1836,0,17,17,42,1,477072_sentence_1.wav,6047b38939f7610352261d47,15,Sí,2022-05-27_15h44.42.509,ratings_exp,2022.1.4,Win32,167.1681712
,,,,,,3.033333672,9.1457,6.933333503,1.6645,0,18,18,71,1,485976_sentence_2.wav,6047b38939f7610352261d47,15,Sí,2022-05-27_15h44.42.509,ratings_exp,2022.1.4,Win32,167.1681712
,,,,,,1.938888974,10.0792,5.005555895,1.8884,0,19,19,32,1,470901_sentence_1.wav,6047b38939f7610352261d47,15,Sí,2022-05-27_15h44.42.509,ratings_exp,2022.1.4,Win32,167.1681712
,,,,,,4.033333672,9.5506,8.983333164,1.7501,0,20,20,22,1,469865_sentence_1.wav,6047b38939f7610352261d47,15,Sí,2022-05-27_15h44.42.509,ratings_exp,2022.1.4,Win32,167.1681712
,,,,,,4,11.0404,6.927777608,1.1606,0,21,21,14,1,469635_sentence_1.wav,6047b38939f7610352261d47,15,Sí,2022-05-27_15h44.42.509,ratings_exp,2022.1.4,Win32,167.1681712
,,,,,,2.011111365,10.3717,2.038889143,1.6713,0,22,22,35,1,471720_sentence_2.wav,6047b38939f7610352261d47,15,Sí,2022-05-27_15h44.42.509,ratings_exp,2022.1.4,Win32,167.1681712
,,,,,,3.033333672,16.2132,5.022222731,1.3709,0,23,23,11,1,469581_sentence_2.wav,6047b38939f7610352261d47,15,Sí,2022-05-27_15h44.42.509,ratings_exp,2022.1.4,Win32,167.1681712
,,,,,,5.044444614,7.8134,8.966667175,1.4115,0,24,24,74,1,487969_sentence_1.wav,6047b38939f7610352261d47,15,Sí,2022-05-27_15h44.42.509,ratings_exp,2022.1.4,Win32,167.1681712
,,,,,,4.994444953,12.4716,7.044444614,1.1777,0,25,25,46,1,479904_sentence_1.wav,6047b38939f7610352261d47,15,Sí,2022-05-27_15h44.42.509,ratings_exp,2022.1.4,Win32,167.1681712
,,,,,,5.094444275,10.3408,7.927777608,1.2936,0,26,26,67,1,485567_sentence_2.wav,6047b38939f7610352261d47,15,Sí,2022-05-27_15h44.42.509,ratings_exp,2022.1.4,Win32,167.1681712
,,,,,,5.922222561,11.3317,8.011110942,12.6291,0,27,27,76,1,488322_sentence_1.wav,6047b38939f7610352261d47,15,Sí,2022-05-27_15h44.42.509,ratings_exp,2022.1.4,Win32,167.1681712
,,,,,,6.927777608,30.0226,7.967684636,13.9782,0,28,28,48,1,480419_sentence_1.wav,6047b38939f7610352261d47,15,Sí,2022-05-27_15h44.42.509,ratings_exp,2022.1.4,Win32,167.1681712
,,,,,,5.010847007,15.2696,8.01107619,1.1441,0,29,29,18,1,469737_sentence_1.wav,6047b38939f7610352261d47,15,Sí,2022-05-27_15h44.42.509,ratings_exp,2022.1.4,Win32,167.1681712
,,,,,,6.002658276,13.3015,7.949087986,0.9915,0,30,30,21,1,469805_sentence_2.wav,6047b38939f7610352261d47,15,Sí,2022-05-27_15h44.42.509,ratings_exp,2022.1.4,Win32,167.1681712
,,,,,,2.066407302,10.8007,8.004876991,1.7787,0,31,31,61,1,484573_sentence_2.wav,6047b38939f7610352261d47,15,Sí,2022-05-27_15h44.42.509,ratings_exp,2022.1.4,Win32,167.1681712
,,,,,,2.004419097,9.1187,3.98184291,2.6954,0,32,32,51,1,481532_sentence_2.wav,6047b38939f7610352261d47,15,Sí,2022-05-27_15h44.42.509,ratings_exp,2022.1.4,Win32,167.1681712
,,,,,,5.010847007,13.8763,7.911894685,1.127,0,33,33,25,1,469875_sentence_2.wav,6047b38939f7610352261d47,15,Sí,2022-05-27_15h44.42.509,ratings_exp,2022.1.4,Win32,167.1681712
,,,,,,6.002658276,15.5861,7.918093884,0.9066,0,34,34,31,1,470408_sentence_2.wav,6047b38939f7610352261d47,15,Sí,2022-05-27_15h44.42.509,ratings_exp,2022.1.4,Win32,167.1681712
,,,,,,5.99645955,11.898,8.916104351,1.3008,0,35,35,36,1,472263_sentence_1.wav,6047b38939f7610352261d47,15,Sí,2022-05-27_15h44.42.509,ratings_exp,2022.1.4,Win32,167.1681712
,,,,,,5.004648281,15.2806,5.066636485,0.8609,0,36,36,45,1,479845_sentence_2.wav,6047b38939f7610352261d47,15,Sí,2022-05-27_15h44.42.509,ratings_exp,2022.1.4,Win32,167.1681712
,,,,,,2.94663985,7.6485,8.122655147,1.7474,0,37,37,56,1,484457_sentence_1.wav,6047b38939f7610352261d47,15,Sí,2022-05-27_15h44.42.509,ratings_exp,2022.1.4,Win32,167.1681712
,,,,,,3.052019608,7.9584,8.054467744,1.4954,0,38,38,66,1,485567_sentence_1.wav,6047b38939f7610352261d47,15,Sí,2022-05-27_15h44.42.509,ratings_exp,2022.1.4,Win32,167.1681712
,,,,,,4.043831114,8.8047,8.940899255,1.6766,0,39,39,75,1,487969_sentence_2.wav,6047b38939f7610352261d47,15,Sí,2022-05-27_15h44.42.509,ratings_exp,2022.1.4,Win32,167.1681712
,,,,,,4.031433189,10.7569,8.023473642,1.9868,0,40,40,23,1,469865_sentence_2.wav,6047b38939f7610352261d47,15,Sí,2022-05-27_15h44.42.509,ratings_exp,2022.1.4,Win32,167.1681712
,,,,,,5.010847007,16.5128,6.008857001,1.2652,0,41,41,62,1,484860_sentence_1.wav,6047b38939f7610352261d47,15,Sí,2022-05-27_15h44.42.509,ratings_exp,2022.1.4,Win32,167.1681712
,,,,,,5.004648281,10.6871,6.994469545,1.6484,0,42,42,63,1,484860_sentence_2.wav,6047b38939f7610352261d47,15,Sí,2022-05-27_15h44.42.509,ratings_exp,2022.1.4,Win32,167.1681712
,,,,,,3.98184291,8.5124,6.021254926,1.0625,0,43,43,16,1,469639_sentence_1.wav,6047b38939f7610352261d47,15,Sí,2022-05-27_15h44.42.509,ratings_exp,2022.1.4,Win32,167.1681712
,,,,,,4.000439087,12.0322,5.990260824,3.1697,0,44,44,65,1,485507_sentence_2.wav,6047b38939f7610352261d47,15,Sí,2022-05-27_15h44.42.509,ratings_exp,2022.1.4,Win32,167.1681712
,,,,,,3.033423194,11.4423,8.984290809,1.4458,0,45,45,0,1,469431_sentence_1.wav,6047b38939f7610352261d47,15,Sí,2022-05-27_15h44.42.509,ratings_exp,2022.1.4,Win32,167.1681712
,,,,,,4.973654179,12.1412,7.99247954,1.548,0,46,46,10,1,469581_sentence_1.wav,6047b38939f7610352261d47,15,Sí,2022-05-27_15h44.42.509,ratings_exp,2022.1.4,Win32,167.1681712
,,,,,,2.990031404,12.1773,4.973654179,1.666,0,47,47,34,1,471720_sentence_1.wav,6047b38939f7610352261d47,15,Sí,2022-05-27_15h44.42.509,ratings_exp,2022.1.4,Win32,167.1681712
,,,,,,4.998449555,11.939,8.965694158,1.4472,0,48,48,1,1,469431_sentence_2.wav,6047b38939f7610352261d47,15,Sí,2022-05-27_15h44.42.509,ratings_exp,2022.1.4,Win32,167.1681712
,,,,,,3.002429092,4.8337,6.963475443,7.5267,0,49,49,38,1,472268_sentence_1.wav,6047b38939f7610352261d47,15,Sí,2022-05-27_15h44.42.509,ratings_exp,2022.1.4,Win32,167.1681712
,,,,,,2.023015511,10.2486,5.010847007,1.5855,0,50,50,59,1,484549_sentence_2.wav,6047b38939f7610352261d47,15,Sí,2022-05-27_15h44.42.509,ratings_exp,2022.1.4,Win32,167.1681712
,,,,,,4.979852904,11.8745,6.951077991,2.126,0,51,51,40,1,475707_sentence_1.wav,6047b38939f7610352261d47,15,Sí,2022-05-27_15h44.42.509,ratings_exp,2022.1.4,Win32,167.1681712
,,,,,,8.984290809,10.7298,8.984290809,0.9735,0,52,52,13,1,469614_sentence_2.wav,6047b38939f7610352261d47,15,Sí,2022-05-27_15h44.42.509,ratings_exp,2022.1.4,Win32,167.1681712
,,,,,,3.938450883,12.7466,7.887099781,1.3916,0,53,53,41,1,475707_sentence_2.wav,6047b38939f7610352261d47,15,Sí,2022-05-27_15h44.42.509,ratings_exp,2022.1.4,Win32,167.1681712
,,,,,,3.089212673,11.0352,5.035642383,1.1916,0,54,54,50,1,481532_sentence_1.wav,6047b38939f7610352261d47,15,Sí,2022-05-27_15h44.42.509,ratings_exp,2022.1.4,Win32,167.1681712
,,,,,,3.975644184,11.7805,7.862304878,1.4616,0,55,55,19,1,469737_sentence_2.wav,6047b38939f7610352261d47,15,Sí,2022-05-27_15h44.42.509,ratings_exp,2022.1.4,Win32,167.1681712
,,,,,,7.99247954,9.8487,7.99247954,0.8614,0,56,56,68,1,485605_sentence_1.wav,6047b38939f7610352261d47,15,Sí,2022-05-27_15h44.42.509,ratings_exp,2022.1.4,Win32,167.1681712
,,,,,,4.074825216,11.073,7.068855201,1.2684,0,57,57,39,1,472268_sentence_2.wav,6047b38939f7610352261d47,15,Sí,2022-05-27_15h44.42.509,ratings_exp,2022.1.4,Win32,167.1681712
,,,,,,4.936461351,10.1337,6.895288512,1.0257,0,58,58,69,1,485605_sentence_2.wav,6047b38939f7610352261d47,15,Sí,2022-05-27_15h44.42.509,ratings_exp,2022.1.4,Win32,167.1681712
,,,,,,3.076814985,7.6057,7.118445953,2.744,0,59,59,73,1,487696_sentence_2.wav,6047b38939f7610352261d47,15,Sí,2022-05-27_15h44.42.509,ratings_exp,2022.1.4,Win32,167.1681712
,,,,,,3.919854705,12.959,7.998678738,1.3114,0,60,60,4,1,469495_sentence_1.wav,6047b38939f7610352261d47,15,Sí,2022-05-27_15h44.42.509,ratings_exp,2022.1.4,Win32,167.1681712
,,,,,,4.998449555,10.4723,7.087451851,1.3219,0,61,61,47,1,479904_sentence_2.wav,6047b38939f7610352261d47,15,Sí,2022-05-27_15h44.42.509,ratings_exp,2022.1.4,Win32,167.1681712
,,,,,,6.988270819,10.8726,6.988270819,0.8147,0,62,62,64,1,485507_sentence_1.wav,6047b38939f7610352261d47,15,Sí,2022-05-27_15h44.42.509,ratings_exp,2022.1.4,Win32,167.1681712
,,,,,,3.027224469,3.8795,7.118445953,1.3563,0,63,63,70,1,485976_sentence_1.wav,6047b38939f7610352261d47,15,Sí,2022-05-27_15h44.42.509,ratings_exp,2022.1.4,Win32,167.1681712
,,,,,,3.070616259,12.2004,6.039851104,1.0984,0,64,64,15,1,469635_sentence_2.wav,6047b38939f7610352261d47,15,Sí,2022-05-27_15h44.42.509,ratings_exp,2022.1.4,Win32,167.1681712
,,,,,,3.988041635,12.2918,8.02967284,1.5178,0,65,65,57,1,484457_sentence_2.wav,6047b38939f7610352261d47,15,Sí,2022-05-27_15h44.42.509,ratings_exp,2022.1.4,Win32,167.1681712
,,,,,,3.994240361,13.0075,7.967684636,1.2611,0,66,66,30,1,470408_sentence_1.wav,6047b38939f7610352261d47,15,Sí,2022-05-27_15h44.42.509,ratings_exp,2022.1.4,Win32,167.1681712
,,,,,,3.988041635,9.7181,7.980082088,1.2744,0,67,67,6,1,469553_sentence_1.wav,6047b38939f7610352261d47,15,Sí,2022-05-27_15h44.42.509,ratings_exp,2022.1.4,Win32,167.1681712
,,,,,,8.953296706,8.6989,8.953296706,0.6853,0,68,68,49,1,480419_sentence_2.wav,6047b38939f7610352261d47,15,Sí,2022-05-27_15h44.42.509,ratings_exp,2022.1.4,Win32,167.1681712
,,,,,,3.027224469,9.916,6.994469545,1.5768,0,69,69,17,1,469639_sentence_2.wav,6047b38939f7610352261d47,15,Sí,2022-05-27_15h44.42.509,ratings_exp,2022.1.4,Win32,167.1681712
,,,,,,7.031662373,11.9148,8.054467744,5.669,0,70,70,2,1,469440_sentence_1.wav,6047b38939f7610352261d47,15,Sí,2022-05-27_15h44.42.509,ratings_exp,2022.1.4,Win32,167.1681712
,,,,,,5.946868797,18.5183,7.998678738,8.5046,0,71,71,3,1,469440_sentence_2.wav,6047b38939f7610352261d47,15,Sí,2022-05-27_15h44.42.509,ratings_exp,2022.1.4,Win32,167.1681712
,,,,,,5.017045732,15.4056,7.949087986,1.0099,0,72,72,43,1,477072_sentence_2.wav,6047b38939f7610352261d47,15,Sí,2022-05-27_15h44.42.509,ratings_exp,2022.1.4,Win32,167.1681712
,,,,,,8.934700056,10.528,7.998678738,2.8849,0,73,73,26,1,469883_sentence_1.wav,6047b38939f7610352261d47,15,Sí,2022-05-27_15h44.42.509,ratings_exp,2022.1.4,Win32,167.1681712
,,,,,,1.861846275,13.2408,5.909675969,1.4278,0,74,74,54,1,484271_sentence_1.wav,6047b38939f7610352261d47,15,Sí,2022-05-27_15h44.42.509,ratings_exp,2022.1.4,Win32,167.1681712
,,,,,,6.876691862,14.2521,8.953296706,1.5152,0,75,75,24,1,469875_sentence_1.wav,6047b38939f7610352261d47,15,Sí,2022-05-27_15h44.42.509,ratings_exp,2022.1.4,Win32,167.1681712
,,,,,,4.948858802,8.9908,7.899497233,4.2475,0,76,76,72,1,487696_sentence_1.wav,6047b38939f7610352261d47,15,Sí,2022-05-27_15h44.42.509,ratings_exp,2022.1.4,Win32,167.1681712
,,,,,,2.0354132,7.4115,5.92827262,1.9302,0,77,77,58,1,484549_sentence_1.wav,6047b38939f7610352261d47,15,Sí,2022-05-27_15h44.42.509,ratings_exp,2022.1.4,Win32,167.1681712
