key_resp.keys,key_resp.rt,eng_proficiency.response,eng_proficiency.rt,eng_proficiency_2.response,eng_proficiency_2.rt,accent_rating.response,accent_rating.rt,accent_rating_2.response,accent_rating_2.rt,trials.thisRepN,trials.thisTrialN,trials.thisN,trials.thisIndex,trials.ran,stim,participant,Cuántos años tenía cuando ud. empezó a aprender el inglés?,Ha enseñado el español cómo seguna lengua?,date,expName,psychopyVersion,OS,frameRate
space,2.0409,6.975000381,3.8825,6.318518745,1.0703,3.007407294,14.0941,1.962962963,8.0239,0,0,0,53,1,481962_sentence_2.wav,60943427c11ddfd172f619e3,6,sí,2022-05-27_15h41.46.056,ratings_exp,2022.1.4,Win32,60.08532116
,,,,,,3.985185411,13.6741,6.977778117,4.5096,0,1,1,31,1,470408_sentence_2.wav,60943427c11ddfd172f619e3,6,sí,2022-05-27_15h41.46.056,ratings_exp,2022.1.4,Win32,60.08532116
,,,,,,4.007407294,9.5302,7,4.9016,0,2,2,4,1,469495_sentence_1.wav,60943427c11ddfd172f619e3,6,sí,2022-05-27_15h41.46.056,ratings_exp,2022.1.4,Win32,60.08532116
,,,,,,8.037037037,13.2659,8.807408086,2.1453,0,3,3,12,1,469614_sentence_1.wav,60943427c11ddfd172f619e3,6,sí,2022-05-27_15h41.46.056,ratings_exp,2022.1.4,Win32,60.08532116
,,,,,,4,5.1915,1.962962963,1.6518,0,4,4,52,1,481962_sentence_1.wav,60943427c11ddfd172f619e3,6,sí,2022-05-27_15h41.46.056,ratings_exp,2022.1.4,Win32,60.08532116
,,,,,,1.037037037,7.2722,2.007407577,0.9927,0,5,5,5,1,469495_sentence_2.wav,60943427c11ddfd172f619e3,6,sí,2022-05-27_15h41.46.056,ratings_exp,2022.1.4,Win32,60.08532116
,,,,,,2.007407577,4.7395,5.481481481,3.6166,0,6,6,70,1,485976_sentence_1.wav,60943427c11ddfd172f619e3,6,sí,2022-05-27_15h41.46.056,ratings_exp,2022.1.4,Win32,60.08532116
,,,,,,3.029629743,6.6904,4.955555669,3.3813,0,7,7,74,1,487969_sentence_1.wav,60943427c11ddfd172f619e3,6,sí,2022-05-27_15h41.46.056,ratings_exp,2022.1.4,Win32,60.08532116
,,,,,,1.007407577,6.07,3.970370257,1.537,0,8,8,54,1,484271_sentence_1.wav,60943427c11ddfd172f619e3,6,sí,2022-05-27_15h41.46.056,ratings_exp,2022.1.4,Win32,60.08532116
,,,,,,1.948148092,4.9371,4.985185411,1.6554,0,9,9,8,1,469558_sentence_1.wav,60943427c11ddfd172f619e3,6,sí,2022-05-27_15h41.46.056,ratings_exp,2022.1.4,Win32,60.08532116
,,,,,,8.985185411,6.8787,8.938462316,12.0209,0,10,10,76,1,488322_sentence_1.wav,60943427c11ddfd172f619e3,6,sí,2022-05-27_15h41.46.056,ratings_exp,2022.1.4,Win32,60.08532116
,,,,,,8.055702918,10.2427,8.955438184,3.0685,0,11,11,6,1,469553_sentence_1.wav,60943427c11ddfd172f619e3,6,sí,2022-05-27_15h41.46.056,ratings_exp,2022.1.4,Win32,60.08532116
,,,,,,4.032360613,3.9279,6.16286511,31.9756,0,12,12,20,1,469805_sentence_1.wav,60943427c11ddfd172f619e3,6,sí,2022-05-27_15h41.46.056,ratings_exp,2022.1.4,Win32,60.08532116
,,,,,,1.995225658,9.2728,3.972944427,1.3343,0,13,13,60,1,484573_sentence_1.wav,60943427c11ddfd172f619e3,6,sí,2022-05-27_15h41.46.056,ratings_exp,2022.1.4,Win32,60.08532116
,,,,,,2.131034548,4.8949,6.875861939,1.5484,0,14,14,39,1,472268_sentence_2.wav,60943427c11ddfd172f619e3,6,sí,2022-05-27_15h41.46.056,ratings_exp,2022.1.4,Win32,60.08532116
,,,,,,2.996817106,3.1506,6.205305428,1.6063,0,15,15,50,1,481532_sentence_1.wav,60943427c11ddfd172f619e3,6,sí,2022-05-27_15h41.46.056,ratings_exp,2022.1.4,Win32,60.08532116
,,,,,,3.056233292,10.1788,5.135808889,2.0689,0,16,16,23,1,469865_sentence_2.wav,60943427c11ddfd172f619e3,6,sí,2022-05-27_15h41.46.056,ratings_exp,2022.1.4,Win32,60.08532116
,,,,,,8.98938992,8.4467,8.98938992,0.9087,0,17,17,49,1,480419_sentence_2.wav,60943427c11ddfd172f619e3,6,sí,2022-05-27_15h41.46.056,ratings_exp,2022.1.4,Win32,60.08532116
,,,,,,6.027055573,48.4564,6.145888594,7.2822,0,18,18,67,1,485567_sentence_2.wav,60943427c11ddfd172f619e3,6,sí,2022-05-27_15h41.46.056,ratings_exp,2022.1.4,Win32,60.08532116
,,,,,,8.887533416,6.8242,8.929973734,1.2352,0,19,19,32,1,470901_sentence_1.wav,60943427c11ddfd172f619e3,6,sí,2022-05-27_15h41.46.056,ratings_exp,2022.1.4,Win32,60.08532116
,,,,,,4.193633952,5.7139,8.021751181,1.6553,0,20,20,3,1,469440_sentence_2.wav,60943427c11ddfd172f619e3,6,sí,2022-05-27_15h41.46.056,ratings_exp,2022.1.4,Win32,60.08532116
,,,,,,2.046153911,5.442,2.046153911,0.9237,0,21,21,34,1,471720_sentence_1.wav,60943427c11ddfd172f619e3,6,sí,2022-05-27_15h41.46.056,ratings_exp,2022.1.4,Win32,60.08532116
,,,,,,4.083289513,9.5415,6.044032089,1.146,0,22,22,19,1,469737_sentence_2.wav,60943427c11ddfd172f619e3,6,sí,2022-05-27_15h41.46.056,ratings_exp,2022.1.4,Win32,60.08532116
,,,,,,3.879575856,4.8088,6.663660348,0.9437,0,23,23,75,1,487969_sentence_2.wav,60943427c11ddfd172f619e3,6,sí,2022-05-27_15h41.46.056,ratings_exp,2022.1.4,Win32,60.08532116
,,,,,,8.997878502,7.287,8.997878502,1.2199,0,24,24,14,1,469635_sentence_1.wav,60943427c11ddfd172f619e3,6,sí,2022-05-27_15h41.46.056,ratings_exp,2022.1.4,Win32,60.08532116
,,,,,,3.989920295,6.5419,7.690716569,0.992,0,25,25,36,1,472263_sentence_1.wav,60943427c11ddfd172f619e3,6,sí,2022-05-27_15h41.46.056,ratings_exp,2022.1.4,Win32,60.08532116
,,,,,,3.064721874,10.5366,6.604244161,1.0467,0,26,26,61,1,484573_sentence_2.wav,60943427c11ddfd172f619e3,6,sí,2022-05-27_15h41.46.056,ratings_exp,2022.1.4,Win32,60.08532116
,,,,,,5.831830498,13.9644,6.069495892,4.1117,0,27,27,45,1,479845_sentence_2.wav,60943427c11ddfd172f619e3,6,sí,2022-05-27_15h41.46.056,ratings_exp,2022.1.4,Win32,60.08532116
,,,,,,3.124138061,2.4772,5.110345087,1.6431,0,28,28,71,1,485976_sentence_2.wav,60943427c11ddfd172f619e3,6,sí,2022-05-27_15h41.46.056,ratings_exp,2022.1.4,Win32,60.08532116
,,,,,,2.971352656,5.3094,6.11193621,1.094,0,29,29,63,1,484860_sentence_2.wav,60943427c11ddfd172f619e3,6,sí,2022-05-27_15h41.46.056,ratings_exp,2022.1.4,Win32,60.08532116
,,,,,,8.072678786,6.627,8.0641915,1.4858,0,30,30,77,1,488322_sentence_2.wav,60943427c11ddfd172f619e3,6,sí,2022-05-27_15h41.46.056,ratings_exp,2022.1.4,Win32,60.08532116
,,,,,,5.195225723,24.1042,6.188328912,4.9747,0,31,31,30,1,470408_sentence_1.wav,60943427c11ddfd172f619e3,6,sí,2022-05-27_15h41.46.056,ratings_exp,2022.1.4,Win32,60.08532116
,,,,,,3.242971081,5.9557,6.892838455,2.9143,0,32,32,42,1,477072_sentence_1.wav,60943427c11ddfd172f619e3,6,sí,2022-05-27_15h41.46.056,ratings_exp,2022.1.4,Win32,60.08532116
,,,,,,5.093368571,4.0759,6.383554636,0.9614,0,33,33,16,1,469639_sentence_1.wav,60943427c11ddfd172f619e3,6,sí,2022-05-27_15h41.46.056,ratings_exp,2022.1.4,Win32,60.08532116
,,,,,,2.962864721,3.0873,6.655172414,1.0859,0,34,34,56,1,484457_sentence_1.wav,60943427c11ddfd172f619e3,6,sí,2022-05-27_15h41.46.056,ratings_exp,2022.1.4,Win32,60.08532116
,,,,,,4.032360613,4.1568,6.731565116,0.9528,0,35,35,46,1,479904_sentence_1.wav,60943427c11ddfd172f619e3,6,sí,2022-05-27_15h41.46.056,ratings_exp,2022.1.4,Win32,60.08532116
,,,,,,3.947479977,2.923,6.790981303,0.9896,0,36,36,59,1,484549_sentence_2.wav,60943427c11ddfd172f619e3,6,sí,2022-05-27_15h41.46.056,ratings_exp,2022.1.4,Win32,60.08532116
,,,,,,4.100265382,3.2887,6.969231158,0.9078,0,37,37,65,1,485507_sentence_2.wav,60943427c11ddfd172f619e3,6,sí,2022-05-27_15h41.46.056,ratings_exp,2022.1.4,Win32,60.08532116
,,,,,,4.108753316,5.2358,6.67214893,0.9087,0,38,38,37,1,472263_sentence_2.wav,60943427c11ddfd172f619e3,6,sí,2022-05-27_15h41.46.056,ratings_exp,2022.1.4,Win32,60.08532116
,,,,,,4.006896811,3.3655,5.033952384,1.9839,0,39,39,51,1,481532_sentence_2.wav,60943427c11ddfd172f619e3,6,sí,2022-05-27_15h41.46.056,ratings_exp,2022.1.4,Win32,60.08532116
,,,,,,3.319363784,6.9926,6.052520023,1.8668,0,40,40,25,1,469875_sentence_2.wav,60943427c11ddfd172f619e3,6,sí,2022-05-27_15h41.46.056,ratings_exp,2022.1.4,Win32,60.08532116
,,,,,,3.022281556,2.658,6.196816847,0.8795,0,41,41,72,1,487696_sentence_1.wav,60943427c11ddfd172f619e3,6,sí,2022-05-27_15h41.46.056,ratings_exp,2022.1.4,Win32,60.08532116
,,,,,,3.064721874,3.3772,6.519363525,0.84,0,42,42,47,1,479904_sentence_2.wav,60943427c11ddfd172f619e3,6,sí,2022-05-27_15h41.46.056,ratings_exp,2022.1.4,Win32,60.08532116
,,,,,,1.027586272,10.9016,1.027586272,1.4565,0,43,43,55,1,484271_sentence_2.wav,60943427c11ddfd172f619e3,6,sí,2022-05-27_15h41.46.056,ratings_exp,2022.1.4,Win32,60.08532116
,,,,,,5.110345087,4.6797,8.081167368,1.3874,0,44,44,57,1,484457_sentence_2.wav,60943427c11ddfd172f619e3,6,sí,2022-05-27_15h41.46.056,ratings_exp,2022.1.4,Win32,60.08532116
,,,,,,4.261538721,6.0582,7.215384486,0.9176,0,45,45,11,1,469581_sentence_2.wav,60943427c11ddfd172f619e3,6,sí,2022-05-27_15h41.46.056,ratings_exp,2022.1.4,Win32,60.08532116
,,,,,,3.141113929,4.8063,6.027055573,0.7377,0,46,46,40,1,475707_sentence_1.wav,60943427c11ddfd172f619e3,6,sí,2022-05-27_15h41.46.056,ratings_exp,2022.1.4,Win32,60.08532116
,,,,,,4.125729832,6.9012,7.028647344,0.9326,0,47,47,58,1,484549_sentence_1.wav,60943427c11ddfd172f619e3,6,sí,2022-05-27_15h41.46.056,ratings_exp,2022.1.4,Win32,60.08532116
,,,,,,3.327851718,14.8549,8.250928641,0.9494,0,48,48,21,1,469805_sentence_2.wav,60943427c11ddfd172f619e3,6,sí,2022-05-27_15h41.46.056,ratings_exp,2022.1.4,Win32,60.08532116
,,,,,,7.079575597,5.5115,8.276393091,1.2352,0,49,49,28,1,469909_sentence_1.wav,60943427c11ddfd172f619e3,6,sí,2022-05-27_15h41.46.056,ratings_exp,2022.1.4,Win32,60.08532116
,,,,,,8.972414052,7.3529,8.972414052,0.8557,0,50,50,26,1,469883_sentence_1.wav,60943427c11ddfd172f619e3,6,sí,2022-05-27_15h41.46.056,ratings_exp,2022.1.4,Win32,60.08532116
,,,,,,6.943766708,10.0665,8.887533416,2.4681,0,51,51,18,1,469737_sentence_1.wav,60943427c11ddfd172f619e3,6,sí,2022-05-27_15h41.46.056,ratings_exp,2022.1.4,Win32,60.08532116
,,,,,,7.071087663,7.4683,8.980902634,1.0042,0,52,52,24,1,469875_sentence_1.wav,60943427c11ddfd172f619e3,6,sí,2022-05-27_15h41.46.056,ratings_exp,2022.1.4,Win32,60.08532116
,,,,,,7.088063531,7.8807,8.946949602,1.2464,0,53,53,2,1,469440_sentence_1.wav,60943427c11ddfd172f619e3,6,sí,2022-05-27_15h41.46.056,ratings_exp,2022.1.4,Win32,60.08532116
,,,,,,4.100265382,5.7132,8.115119104,0.9841,0,54,54,22,1,469865_sentence_1.wav,60943427c11ddfd172f619e3,6,sí,2022-05-27_15h41.46.056,ratings_exp,2022.1.4,Win32,60.08532116
,,,,,,4.100265382,4.7949,5.135808889,1.3493,0,55,55,62,1,484860_sentence_1.wav,60943427c11ddfd172f619e3,6,sí,2022-05-27_15h41.46.056,ratings_exp,2022.1.4,Win32,60.08532116
,,,,,,4.066312997,5.3988,6.901326389,1.9466,0,56,56,44,1,479845_sentence_1.wav,60943427c11ddfd172f619e3,6,sí,2022-05-27_15h41.46.056,ratings_exp,2022.1.4,Win32,60.08532116
,,,,,,3.081697742,5.901,7.138992431,0.8115,0,57,57,48,1,480419_sentence_1.wav,60943427c11ddfd172f619e3,6,sí,2022-05-27_15h41.46.056,ratings_exp,2022.1.4,Win32,60.08532116
,,,,,,4.1427057,2.3428,6.824933687,0.821,0,58,58,33,1,470901_sentence_2.wav,60943427c11ddfd172f619e3,6,sí,2022-05-27_15h41.46.056,ratings_exp,2022.1.4,Win32,60.08532116
,,,,,,4.1427057,2.8354,7.368169891,0.8423,0,59,59,73,1,487696_sentence_2.wav,60943427c11ddfd172f619e3,6,sí,2022-05-27_15h41.46.056,ratings_exp,2022.1.4,Win32,60.08532116
,,,,,,3.446684739,11.3628,7.563395614,0.8696,0,60,60,66,1,485567_sentence_1.wav,60943427c11ddfd172f619e3,6,sí,2022-05-27_15h41.46.056,ratings_exp,2022.1.4,Win32,60.08532116
,,,,,,6.952254642,4.5359,6.952254642,0.9081,0,61,61,0,1,469431_sentence_1.wav,60943427c11ddfd172f619e3,6,sí,2022-05-27_15h41.46.056,ratings_exp,2022.1.4,Win32,60.08532116
,,,,,,7.138992431,5.5462,8.836604516,1.2297,0,62,62,27,1,469883_sentence_2.wav,60943427c11ddfd172f619e3,6,sí,2022-05-27_15h41.46.056,ratings_exp,2022.1.4,Win32,60.08532116
,,,,,,6.018567639,7.042,8.819628647,1.3353,0,63,63,7,1,469553_sentence_2.wav,60943427c11ddfd172f619e3,6,sí,2022-05-27_15h41.46.056,ratings_exp,2022.1.4,Win32,60.08532116
,,,,,,2.122546613,6.9593,4.889655561,0.9975,0,64,64,17,1,469639_sentence_2.wav,60943427c11ddfd172f619e3,6,sí,2022-05-27_15h41.46.056,ratings_exp,2022.1.4,Win32,60.08532116
,,,,,,6.052520023,5.9183,8.921485152,1.6424,0,65,65,1,1,469431_sentence_2.wav,60943427c11ddfd172f619e3,6,sí,2022-05-27_15h41.46.056,ratings_exp,2022.1.4,Win32,60.08532116
,,,,,,2.988329172,3.0512,4.312466973,1.3455,0,66,66,38,1,472268_sentence_1.wav,60943427c11ddfd172f619e3,6,sí,2022-05-27_15h41.46.056,ratings_exp,2022.1.4,Win32,60.08532116
,,,,,,2.844031701,5.9697,5.25464191,0.8265,0,67,67,15,1,469635_sentence_2.wav,60943427c11ddfd172f619e3,6,sí,2022-05-27_15h41.46.056,ratings_exp,2022.1.4,Win32,60.08532116
,,,,,,4.134217766,6.3608,5.237666042,0.8741,0,68,68,29,1,469909_sentence_2.wav,60943427c11ddfd172f619e3,6,sí,2022-05-27_15h41.46.056,ratings_exp,2022.1.4,Win32,60.08532116
,,,,,,5.033952384,4.982,5.033952384,0.9941,0,69,69,68,1,485605_sentence_1.wav,60943427c11ddfd172f619e3,6,sí,2022-05-27_15h41.46.056,ratings_exp,2022.1.4,Win32,60.08532116
,,,,,,5.033952384,2.4715,5.033952384,1.5366,0,70,70,64,1,485507_sentence_1.wav,60943427c11ddfd172f619e3,6,sí,2022-05-27_15h41.46.056,ratings_exp,2022.1.4,Win32,60.08532116
,,,,,,4.1427057,2.6081,6.264721615,0.7275,0,71,71,9,1,469558_sentence_2.wav,60943427c11ddfd172f619e3,6,sí,2022-05-27_15h41.46.056,ratings_exp,2022.1.4,Win32,60.08532116
,,,,,,2.869496151,4.7272,6.816445753,1.0045,0,72,72,41,1,475707_sentence_2.wav,60943427c11ddfd172f619e3,6,sí,2022-05-27_15h41.46.056,ratings_exp,2022.1.4,Win32,60.08532116
,,,,,,2.767639646,3.8363,7.096552113,1.1493,0,73,73,10,1,469581_sentence_1.wav,60943427c11ddfd172f619e3,6,sí,2022-05-27_15h41.46.056,ratings_exp,2022.1.4,Win32,60.08532116
,,,,,,1.044562464,19.4647,1.044562464,0.9034,0,74,74,35,1,471720_sentence_2.wav,60943427c11ddfd172f619e3,6,sí,2022-05-27_15h41.46.056,ratings_exp,2022.1.4,Win32,60.08532116
,,,,,,3.989920295,6.1012,8.208488323,1.5398,0,75,75,69,1,485605_sentence_2.wav,60943427c11ddfd172f619e3,6,sí,2022-05-27_15h41.46.056,ratings_exp,2022.1.4,Win32,60.08532116
,,,,,,2.886472019,5.1447,6.213793362,0.8667,0,76,76,13,1,469614_sentence_2.wav,60943427c11ddfd172f619e3,6,sí,2022-05-27_15h41.46.056,ratings_exp,2022.1.4,Win32,60.08532116
,,,,,,6.213793362,4.7217,6.213793362,0.8477,0,77,77,43,1,477072_sentence_2.wav,60943427c11ddfd172f619e3,6,sí,2022-05-27_15h41.46.056,ratings_exp,2022.1.4,Win32,60.08532116
