key_resp.keys,key_resp.rt,eng_proficiency.response,eng_proficiency.rt,eng_proficiency_2.response,eng_proficiency_2.rt,accent_rating.response,accent_rating.rt,accent_rating_2.response,accent_rating_2.rt,trials.thisRepN,trials.thisTrialN,trials.thisN,trials.thisIndex,trials.ran,stim,participant,Cuántos años tenía cuando ud. empezó a aprender el inglés?,Ha enseñado el español cómo seguna lengua?,date,expName,psychopyVersion,OS,frameRate
space,52.3537,5.97,4.8542,8.831111111,5.4866,1.648888889,29.5486,4.857777778,21.7094,0,0,0,42,1,477072_sentence_1.wav,611e8be405de1e23f7232157,10,no,2022-05-27_15h48.50.998,ratings_exp,2022.1.4,Win32,60.17933442
,,,,,,2.955555556,15.1685,7.755555556,9.2858,0,1,1,38,1,472268_sentence_1.wav,611e8be405de1e23f7232157,10,no,2022-05-27_15h48.50.998,ratings_exp,2022.1.4,Win32,60.17933442
,,,,,,3.471111111,13.5406,8.288888889,3.9494,0,2,2,75,1,487969_sentence_2.wav,611e8be405de1e23f7232157,10,no,2022-05-27_15h48.50.998,ratings_exp,2022.1.4,Win32,60.17933442
,,,,,,6.111111111,15.3795,8.955555556,5.1079,0,3,3,30,1,470408_sentence_1.wav,611e8be405de1e23f7232157,10,no,2022-05-27_15h48.50.998,ratings_exp,2022.1.4,Win32,60.17933442
,,,,,,2.911111111,12.4878,6.031111111,13.2357,0,4,4,7,1,469553_sentence_2.wav,611e8be405de1e23f7232157,10,no,2022-05-27_15h48.50.998,ratings_exp,2022.1.4,Win32,60.17933442
,,,,,,7.862222222,16.7082,8.893333333,4.1561,0,5,5,48,1,480419_sentence_1.wav,611e8be405de1e23f7232157,10,no,2022-05-27_15h48.50.998,ratings_exp,2022.1.4,Win32,60.17933442
,,,,,,2.271111111,17.1978,5.871111111,8.8224,0,6,6,35,1,471720_sentence_2.wav,611e8be405de1e23f7232157,10,no,2022-05-27_15h48.50.998,ratings_exp,2022.1.4,Win32,60.17933442
,,,,,,3.515555556,73.1528,7.906666667,4.7538,0,7,7,73,1,487696_sentence_2.wav,611e8be405de1e23f7232157,10,no,2022-05-27_15h48.50.998,ratings_exp,2022.1.4,Win32,60.17933442
,,,,,,3.8,14.3742,7.044444444,5.5592,0,8,8,15,1,469635_sentence_2.wav,611e8be405de1e23f7232157,10,no,2022-05-27_15h48.50.998,ratings_exp,2022.1.4,Win32,60.17933442
,,,,,,4.902222222,7.071,8.804444444,4.8568,0,9,9,41,1,475707_sentence_2.wav,611e8be405de1e23f7232157,10,no,2022-05-27_15h48.50.998,ratings_exp,2022.1.4,Win32,60.17933442
,,,,,,4.306666667,9.3855,7.017777778,2.5181,0,10,10,62,1,484860_sentence_1.wav,611e8be405de1e23f7232157,10,no,2022-05-27_15h48.50.998,ratings_exp,2022.1.4,Win32,60.17933442
,,,,,,6.057777778,9.8713,8.804444444,2.6175,0,11,11,16,1,469639_sentence_1.wav,611e8be405de1e23f7232157,10,no,2022-05-27_15h48.50.998,ratings_exp,2022.1.4,Win32,60.17933442
,,,,,,4.937777778,15.5637,6.2,4.3863,0,12,12,51,1,481532_sentence_2.wav,611e8be405de1e23f7232157,10,no,2022-05-27_15h48.50.998,ratings_exp,2022.1.4,Win32,60.17933442
,,,,,,2.724444444,13.1534,7.96,2.6818,0,13,13,9,1,469558_sentence_2.wav,611e8be405de1e23f7232157,10,no,2022-05-27_15h48.50.998,ratings_exp,2022.1.4,Win32,60.17933442
,,,,,,8.057777778,11.8346,8.982222222,3.6258,0,14,14,36,1,472263_sentence_1.wav,611e8be405de1e23f7232157,10,no,2022-05-27_15h48.50.998,ratings_exp,2022.1.4,Win32,60.17933442
,,,,,,4.537777778,6.5945,8.813333333,2.2315,0,15,15,72,1,487696_sentence_1.wav,611e8be405de1e23f7232157,10,no,2022-05-27_15h48.50.998,ratings_exp,2022.1.4,Win32,60.17933442
,,,,,,3.053333333,14.0726,7.933333333,3.9625,0,16,16,61,1,484573_sentence_2.wav,611e8be405de1e23f7232157,10,no,2022-05-27_15h48.50.998,ratings_exp,2022.1.4,Win32,60.17933442
,,,,,,4.751111111,18.7027,8.626666667,3.6803,0,17,17,12,1,469614_sentence_1.wav,611e8be405de1e23f7232157,10,no,2022-05-27_15h48.50.998,ratings_exp,2022.1.4,Win32,60.17933442
,,,,,,7.737777778,12.212,8.937777778,2.3451,0,18,18,49,1,480419_sentence_2.wav,611e8be405de1e23f7232157,10,no,2022-05-27_15h48.50.998,ratings_exp,2022.1.4,Win32,60.17933442
,,,,,,4.315555556,12.4009,6.582222222,2.5714,0,19,19,60,1,484573_sentence_1.wav,611e8be405de1e23f7232157,10,no,2022-05-27_15h48.50.998,ratings_exp,2022.1.4,Win32,60.17933442
,,,,,,5.231111111,7.6241,8.831111111,2.5708,0,20,20,23,1,469865_sentence_2.wav,611e8be405de1e23f7232157,10,no,2022-05-27_15h48.50.998,ratings_exp,2022.1.4,Win32,60.17933442
,,,,,,8.893333333,9.7215,8.955555556,2.0589,0,21,21,27,1,469883_sentence_2.wav,611e8be405de1e23f7232157,10,no,2022-05-27_15h48.50.998,ratings_exp,2022.1.4,Win32,60.17933442
,,,,,,7.133333333,11.0564,8.706666667,1.6439,0,22,22,57,1,484457_sentence_2.wav,611e8be405de1e23f7232157,10,no,2022-05-27_15h48.50.998,ratings_exp,2022.1.4,Win32,60.17933442
,,,,,,8.813333333,6.2253,8.964444444,3.1337,0,23,23,26,1,469883_sentence_1.wav,611e8be405de1e23f7232157,10,no,2022-05-27_15h48.50.998,ratings_exp,2022.1.4,Win32,60.17933442
,,,,,,4.111111111,8.4654,7.977777778,1.7286,0,24,24,8,1,469558_sentence_1.wav,611e8be405de1e23f7232157,10,no,2022-05-27_15h48.50.998,ratings_exp,2022.1.4,Win32,60.17933442
,,,,,,2.004444444,8.7199,8.368888889,2.0705,0,25,25,70,1,485976_sentence_1.wav,611e8be405de1e23f7232157,10,no,2022-05-27_15h48.50.998,ratings_exp,2022.1.4,Win32,60.17933442
,,,,,,1.711111111,12.2849,5.062222222,2.5539,0,26,26,43,1,477072_sentence_2.wav,611e8be405de1e23f7232157,10,no,2022-05-27_15h48.50.998,ratings_exp,2022.1.4,Win32,60.17933442
,,,,,,6.991111111,11.3057,8.431111111,2.055,0,27,27,0,1,469431_sentence_1.wav,611e8be405de1e23f7232157,10,no,2022-05-27_15h48.50.998,ratings_exp,2022.1.4,Win32,60.17933442
,,,,,,6.04,19.6562,8.697777778,2.3146,0,28,28,22,1,469865_sentence_1.wav,611e8be405de1e23f7232157,10,no,2022-05-27_15h48.50.998,ratings_exp,2022.1.4,Win32,60.17933442
,,,,,,3.008888889,9.9721,7,3.2516,0,29,29,39,1,472268_sentence_2.wav,611e8be405de1e23f7232157,10,no,2022-05-27_15h48.50.998,ratings_exp,2022.1.4,Win32,60.17933442
,,,,,,3.968888889,6.2137,7.062222222,3.2032,0,30,30,66,1,485567_sentence_1.wav,611e8be405de1e23f7232157,10,no,2022-05-27_15h48.50.998,ratings_exp,2022.1.4,Win32,60.17933442
,,,,,,1.408888889,13.3426,4.555555556,8.2565,0,31,31,54,1,484271_sentence_1.wav,611e8be405de1e23f7232157,10,no,2022-05-27_15h48.50.998,ratings_exp,2022.1.4,Win32,60.17933442
,,,,,,4.795555556,13.5502,7.568888889,2.7788,0,32,32,45,1,479845_sentence_2.wav,611e8be405de1e23f7232157,10,no,2022-05-27_15h48.50.998,ratings_exp,2022.1.4,Win32,60.17933442
,,,,,,4.022222222,11.7165,7.977777778,3.1017,0,33,33,28,1,469909_sentence_1.wav,611e8be405de1e23f7232157,10,no,2022-05-27_15h48.50.998,ratings_exp,2022.1.4,Win32,60.17933442
,,,,,,7.008888889,8.3187,8.928888889,1.9277,0,34,34,1,1,469431_sentence_2.wav,611e8be405de1e23f7232157,10,no,2022-05-27_15h48.50.998,ratings_exp,2022.1.4,Win32,60.17933442
,,,,,,5.96,9.2978,7.88,2.7519,0,35,35,10,1,469581_sentence_1.wav,611e8be405de1e23f7232157,10,no,2022-05-27_15h48.50.998,ratings_exp,2022.1.4,Win32,60.17933442
,,,,,,4.768888889,12.7312,7.817777778,3.3647,0,36,36,29,1,469909_sentence_2.wav,611e8be405de1e23f7232157,10,no,2022-05-27_15h48.50.998,ratings_exp,2022.1.4,Win32,60.17933442
,,,,,,5.151111111,23.3972,7.444444444,7.4479,0,37,37,74,1,487969_sentence_1.wav,611e8be405de1e23f7232157,10,no,2022-05-27_15h48.50.998,ratings_exp,2022.1.4,Win32,60.17933442
,,,,,,1.915555556,11.0579,7.382222222,1.7991,0,38,38,59,1,484549_sentence_2.wav,611e8be405de1e23f7232157,10,no,2022-05-27_15h48.50.998,ratings_exp,2022.1.4,Win32,60.17933442
,,,,,,7.382222222,14.6714,8.671111111,3.9587,0,39,39,46,1,479904_sentence_1.wav,611e8be405de1e23f7232157,10,no,2022-05-27_15h48.50.998,ratings_exp,2022.1.4,Win32,60.17933442
,,,,,,8.04,9.837,8.137777778,3.6128,0,40,40,33,1,470901_sentence_2.wav,611e8be405de1e23f7232157,10,no,2022-05-27_15h48.50.998,ratings_exp,2022.1.4,Win32,60.17933442
,,,,,,8.013333333,10.6036,8.368888889,3.0528,0,41,41,77,1,488322_sentence_2.wav,611e8be405de1e23f7232157,10,no,2022-05-27_15h48.50.998,ratings_exp,2022.1.4,Win32,60.17933442
,,,,,,3.995555556,10.6281,6.057777778,3.2197,0,42,42,67,1,485567_sentence_2.wav,611e8be405de1e23f7232157,10,no,2022-05-27_15h48.50.998,ratings_exp,2022.1.4,Win32,60.17933442
,,,,,,6.12,10.0103,7.88,7.3942,0,43,43,21,1,469805_sentence_2.wav,611e8be405de1e23f7232157,10,no,2022-05-27_15h48.50.998,ratings_exp,2022.1.4,Win32,60.17933442
,,,,,,1.266666667,11.4869,3.133333333,2.3074,0,44,44,55,1,484271_sentence_2.wav,611e8be405de1e23f7232157,10,no,2022-05-27_15h48.50.998,ratings_exp,2022.1.4,Win32,60.17933442
,,,,,,1.942222222,4.8942,5.008888889,10.8637,0,45,45,47,1,479904_sentence_2.wav,611e8be405de1e23f7232157,10,no,2022-05-27_15h48.50.998,ratings_exp,2022.1.4,Win32,60.17933442
,,,,,,2.493333333,10.2771,7.604444444,5.9332,0,46,46,14,1,469635_sentence_1.wav,611e8be405de1e23f7232157,10,no,2022-05-27_15h48.50.998,ratings_exp,2022.1.4,Win32,60.17933442
,,,,,,7.835555556,10.1067,8.715555556,1.7813,0,47,47,69,1,485605_sentence_2.wav,611e8be405de1e23f7232157,10,no,2022-05-27_15h48.50.998,ratings_exp,2022.1.4,Win32,60.17933442
,,,,,,3.097777778,13.5056,5.195555556,1.5046,0,48,48,40,1,475707_sentence_1.wav,611e8be405de1e23f7232157,10,no,2022-05-27_15h48.50.998,ratings_exp,2022.1.4,Win32,60.17933442
,,,,,,4.013333333,15.4555,6.555555556,3.5901,0,49,49,63,1,484860_sentence_2.wav,611e8be405de1e23f7232157,10,no,2022-05-27_15h48.50.998,ratings_exp,2022.1.4,Win32,60.17933442
,,,,,,2.502222222,9.9354,5.408888889,15.7914,0,50,50,17,1,469639_sentence_2.wav,611e8be405de1e23f7232157,10,no,2022-05-27_15h48.50.998,ratings_exp,2022.1.4,Win32,60.17933442
,,,,,,7.08,17.5116,8.191111111,5.7625,0,51,51,20,1,469805_sentence_1.wav,611e8be405de1e23f7232157,10,no,2022-05-27_15h48.50.998,ratings_exp,2022.1.4,Win32,60.17933442
,,,,,,5.648888889,7.9321,7.097777778,3.0147,0,52,52,56,1,484457_sentence_1.wav,611e8be405de1e23f7232157,10,no,2022-05-27_15h48.50.998,ratings_exp,2022.1.4,Win32,60.17933442
,,,,,,3.986666667,26.5962,6.084444444,1.9923,0,53,53,11,1,469581_sentence_2.wav,611e8be405de1e23f7232157,10,no,2022-05-27_15h48.50.998,ratings_exp,2022.1.4,Win32,60.17933442
,,,,,,8.031111111,9.6145,8.564444444,1.7686,0,54,54,68,1,485605_sentence_1.wav,611e8be405de1e23f7232157,10,no,2022-05-27_15h48.50.998,ratings_exp,2022.1.4,Win32,60.17933442
,,,,,,1.986666667,9.9317,5.995555556,4.1871,0,55,55,58,1,484549_sentence_1.wav,611e8be405de1e23f7232157,10,no,2022-05-27_15h48.50.998,ratings_exp,2022.1.4,Win32,60.17933442
,,,,,,5.995555556,10.1573,8.066666667,4.517,0,56,56,18,1,469737_sentence_1.wav,611e8be405de1e23f7232157,10,no,2022-05-27_15h48.50.998,ratings_exp,2022.1.4,Win32,60.17933442
,,,,,,7.248888889,10.4499,8.111111111,2.8023,0,57,57,3,1,469440_sentence_2.wav,611e8be405de1e23f7232157,10,no,2022-05-27_15h48.50.998,ratings_exp,2022.1.4,Win32,60.17933442
,,,,,,1.595555556,15.2279,4.351111111,1.2076,0,58,58,34,1,471720_sentence_1.wav,611e8be405de1e23f7232157,10,no,2022-05-27_15h48.50.998,ratings_exp,2022.1.4,Win32,60.17933442
,,,,,,2.04,12.8199,6.973333333,3.8001,0,59,59,65,1,485507_sentence_2.wav,611e8be405de1e23f7232157,10,no,2022-05-27_15h48.50.998,ratings_exp,2022.1.4,Win32,60.17933442
,,,,,,4.44,14.4594,6.048888889,2.8412,0,60,60,4,1,469495_sentence_1.wav,611e8be405de1e23f7232157,10,no,2022-05-27_15h48.50.998,ratings_exp,2022.1.4,Win32,60.17933442
,,,,,,3.373333333,22.5937,5.782222222,3.3298,0,61,61,31,1,470408_sentence_2.wav,611e8be405de1e23f7232157,10,no,2022-05-27_15h48.50.998,ratings_exp,2022.1.4,Win32,60.17933442
,,,,,,2.155555556,6.7899,6.991111111,7.0962,0,62,62,5,1,469495_sentence_2.wav,611e8be405de1e23f7232157,10,no,2022-05-27_15h48.50.998,ratings_exp,2022.1.4,Win32,60.17933442
,,,,,,8.12,13.9859,8.946666667,2.8431,0,63,63,24,1,469875_sentence_1.wav,611e8be405de1e23f7232157,10,no,2022-05-27_15h48.50.998,ratings_exp,2022.1.4,Win32,60.17933442
,,,,,,4.057777778,11.9453,7.728888889,7.5529,0,64,64,76,1,488322_sentence_1.wav,611e8be405de1e23f7232157,10,no,2022-05-27_15h48.50.998,ratings_exp,2022.1.4,Win32,60.17933442
,,,,,,2.244444444,22.4489,7.773333333,4.1862,0,65,65,32,1,470901_sentence_1.wav,611e8be405de1e23f7232157,10,no,2022-05-27_15h48.50.998,ratings_exp,2022.1.4,Win32,60.17933442
,,,,,,2.946666667,12.1666,7.044444444,1.943,0,66,66,44,1,479845_sentence_1.wav,611e8be405de1e23f7232157,10,no,2022-05-27_15h48.50.998,ratings_exp,2022.1.4,Win32,60.17933442
,,,,,,5.017777778,13.3071,7.968888889,1.8332,0,67,67,25,1,469875_sentence_2.wav,611e8be405de1e23f7232157,10,no,2022-05-27_15h48.50.998,ratings_exp,2022.1.4,Win32,60.17933442
,,,,,,7,12.4705,7.693333333,2.1555,0,68,68,13,1,469614_sentence_2.wav,611e8be405de1e23f7232157,10,no,2022-05-27_15h48.50.998,ratings_exp,2022.1.4,Win32,60.17933442
,,,,,,7.32,12.7482,8.235555556,1.6821,0,69,69,6,1,469553_sentence_1.wav,611e8be405de1e23f7232157,10,no,2022-05-27_15h48.50.998,ratings_exp,2022.1.4,Win32,60.17933442
,,,,,,2.04,13.3738,6.955555556,3.7146,0,70,70,53,1,481962_sentence_2.wav,611e8be405de1e23f7232157,10,no,2022-05-27_15h48.50.998,ratings_exp,2022.1.4,Win32,60.17933442
,,,,,,3.906666667,36.4578,6.555555556,9.9478,0,71,71,64,1,485507_sentence_1.wav,611e8be405de1e23f7232157,10,no,2022-05-27_15h48.50.998,ratings_exp,2022.1.4,Win32,60.17933442
,,,,,,7.995555556,5.6307,8.688888889,2.6368,0,72,72,2,1,469440_sentence_1.wav,611e8be405de1e23f7232157,10,no,2022-05-27_15h48.50.998,ratings_exp,2022.1.4,Win32,60.17933442
,,,,,,6.04,8.8945,6.946666667,2.0161,0,73,73,50,1,481532_sentence_1.wav,611e8be405de1e23f7232157,10,no,2022-05-27_15h48.50.998,ratings_exp,2022.1.4,Win32,60.17933442
,,,,,,5.008888889,19.3022,6.502222222,2.4541,0,74,74,37,1,472263_sentence_2.wav,611e8be405de1e23f7232157,10,no,2022-05-27_15h48.50.998,ratings_exp,2022.1.4,Win32,60.17933442
,,,,,,4.057777778,18.7695,6.982222222,6.8785,0,75,75,19,1,469737_sentence_2.wav,611e8be405de1e23f7232157,10,no,2022-05-27_15h48.50.998,ratings_exp,2022.1.4,Win32,60.17933442
,,,,,,6.164444444,10.612,6.671111111,2.304,0,76,76,52,1,481962_sentence_1.wav,611e8be405de1e23f7232157,10,no,2022-05-27_15h48.50.998,ratings_exp,2022.1.4,Win32,60.17933442
,,,,,,3.017777778,6.0402,7.568888889,12.6935,0,77,77,71,1,485976_sentence_2.wav,611e8be405de1e23f7232157,10,no,2022-05-27_15h48.50.998,ratings_exp,2022.1.4,Win32,60.17933442
