key_resp.keys,key_resp.rt,eng_proficiency.response,eng_proficiency.rt,eng_proficiency_2.response,eng_proficiency_2.rt,accent_rating.response,accent_rating.rt,accent_rating_2.response,accent_rating_2.rt,trials.thisRepN,trials.thisTrialN,trials.thisN,trials.thisIndex,trials.ran,stim,participant,Cuántos años tenía cuando ud. empezó a aprender el inglés?,Ha enseñado el español cómo seguna lengua?,date,expName,psychopyVersion,OS,frameRate
space,4.0322,8.1015625,2.3259,8.96875,2.875,2.947916667,7.9483,7.927083333,1.3998,0,0,0,8,1,469558_sentence_1.wav,613ab07eb344dc2516d0d885,5,no,2022-05-27_14h05.12.663,ratings_exp,2022.1.4,Win32,59.98440405
,,,,,,2.010416667,1.136,1.958333333,4.1695,0,1,1,20,1,469805_sentence_1.wav,613ab07eb344dc2516d0d885,5,no,2022-05-27_14h05.12.663,ratings_exp,2022.1.4,Win32,59.98440405
,,,,,,2.947916667,5.2844,9,2.5877,0,2,2,66,1,485567_sentence_1.wav,613ab07eb344dc2516d0d885,5,no,2022-05-27_14h05.12.663,ratings_exp,2022.1.4,Win32,59.98440405
,,,,,,4.947916667,6.1832,8.979166667,1.2039,0,3,3,31,1,470408_sentence_2.wav,613ab07eb344dc2516d0d885,5,no,2022-05-27_14h05.12.663,ratings_exp,2022.1.4,Win32,59.98440405
,,,,,,2.041666667,4.6918,7.958333333,1.9904,0,4,4,17,1,469639_sentence_2.wav,613ab07eb344dc2516d0d885,5,no,2022-05-27_14h05.12.663,ratings_exp,2022.1.4,Win32,59.98440405
,,,,,,2.96875,4.1443,9,1.3357,0,5,5,16,1,469639_sentence_1.wav,613ab07eb344dc2516d0d885,5,no,2022-05-27_14h05.12.663,ratings_exp,2022.1.4,Win32,59.98440405
,,,,,,1.114583333,5.9527,9,0.9757,0,6,6,74,1,487969_sentence_1.wav,613ab07eb344dc2516d0d885,5,no,2022-05-27_14h05.12.663,ratings_exp,2022.1.4,Win32,59.98440405
,,,,,,2.104166667,2.9884,8.916666667,0.9262,0,7,7,35,1,471720_sentence_2.wav,613ab07eb344dc2516d0d885,5,no,2022-05-27_14h05.12.663,ratings_exp,2022.1.4,Win32,59.98440405
,,,,,,2.979166667,5.7969,7.916666667,0.8826,0,8,8,5,1,469495_sentence_2.wav,613ab07eb344dc2516d0d885,5,no,2022-05-27_14h05.12.663,ratings_exp,2022.1.4,Win32,59.98440405
,,,,,,7.010416667,5.56,9,0.7352,0,9,9,52,1,481962_sentence_1.wav,613ab07eb344dc2516d0d885,5,no,2022-05-27_14h05.12.663,ratings_exp,2022.1.4,Win32,59.98440405
,,,,,,9,6.6781,9,1.1867,0,10,10,76,1,488322_sentence_1.wav,613ab07eb344dc2516d0d885,5,no,2022-05-27_14h05.12.663,ratings_exp,2022.1.4,Win32,59.98440405
,,,,,,3.041666667,6.9277,7.958333333,1.1843,0,11,11,24,1,469875_sentence_1.wav,613ab07eb344dc2516d0d885,5,no,2022-05-27_14h05.12.663,ratings_exp,2022.1.4,Win32,59.98440405
,,,,,,1,9.623,8.03125,1.3,0,12,12,19,1,469737_sentence_2.wav,613ab07eb344dc2516d0d885,5,no,2022-05-27_14h05.12.663,ratings_exp,2022.1.4,Win32,59.98440405
,,,,,,1.010416667,5.0427,8.96875,0.9623,0,13,13,72,1,487696_sentence_1.wav,613ab07eb344dc2516d0d885,5,no,2022-05-27_14h05.12.663,ratings_exp,2022.1.4,Win32,59.98440405
,,,,,,2.114583333,20.5906,8.072916667,3.2985,0,14,14,43,1,477072_sentence_2.wav,613ab07eb344dc2516d0d885,5,no,2022-05-27_14h05.12.663,ratings_exp,2022.1.4,Win32,59.98440405
,,,,,,2.083333333,5.1575,8.895833333,1.7646,0,15,15,26,1,469883_sentence_1.wav,613ab07eb344dc2516d0d885,5,no,2022-05-27_14h05.12.663,ratings_exp,2022.1.4,Win32,59.98440405
,,,,,,3.03125,4.9662,8,1.3099,0,16,16,46,1,479904_sentence_1.wav,613ab07eb344dc2516d0d885,5,no,2022-05-27_14h05.12.663,ratings_exp,2022.1.4,Win32,59.98440405
,,,,,,1.114583333,3.9049,9,0.9937,0,17,17,53,1,481962_sentence_2.wav,613ab07eb344dc2516d0d885,5,no,2022-05-27_14h05.12.663,ratings_exp,2022.1.4,Win32,59.98440405
,,,,,,1.96875,4.2161,9,1.691,0,18,18,12,1,469614_sentence_1.wav,613ab07eb344dc2516d0d885,5,no,2022-05-27_14h05.12.663,ratings_exp,2022.1.4,Win32,59.98440405
,,,,,,1.020833333,6.2089,7.072916667,1.2728,0,19,19,34,1,471720_sentence_1.wav,613ab07eb344dc2516d0d885,5,no,2022-05-27_14h05.12.663,ratings_exp,2022.1.4,Win32,59.98440405
,,,,,,1.052083333,3.3481,8.947916667,1.0045,0,20,20,70,1,485976_sentence_1.wav,613ab07eb344dc2516d0d885,5,no,2022-05-27_14h05.12.663,ratings_exp,2022.1.4,Win32,59.98440405
,,,,,,1.010416667,7.4737,7.895833333,1.0892,0,21,21,55,1,484271_sentence_2.wav,613ab07eb344dc2516d0d885,5,no,2022-05-27_14h05.12.663,ratings_exp,2022.1.4,Win32,59.98440405
,,,,,,1,6.1498,9,1.267,0,22,22,61,1,484573_sentence_2.wav,613ab07eb344dc2516d0d885,5,no,2022-05-27_14h05.12.663,ratings_exp,2022.1.4,Win32,59.98440405
,,,,,,1.020833333,10.2915,8.072916667,1.4025,0,23,23,59,1,484549_sentence_2.wav,613ab07eb344dc2516d0d885,5,no,2022-05-27_14h05.12.663,ratings_exp,2022.1.4,Win32,59.98440405
,,,,,,3.927083333,7.6518,9,1.046,0,24,24,22,1,469865_sentence_1.wav,613ab07eb344dc2516d0d885,5,no,2022-05-27_14h05.12.663,ratings_exp,2022.1.4,Win32,59.98440405
,,,,,,2.114583333,10.3655,7.958333333,1.6239,0,25,25,11,1,469581_sentence_2.wav,613ab07eb344dc2516d0d885,5,no,2022-05-27_14h05.12.663,ratings_exp,2022.1.4,Win32,59.98440405
,,,,,,9,4.8889,9,0.8787,0,26,26,40,1,475707_sentence_1.wav,613ab07eb344dc2516d0d885,5,no,2022-05-27_14h05.12.663,ratings_exp,2022.1.4,Win32,59.98440405
,,,,,,3.96875,13.8292,8.979166667,0.9138,0,27,27,21,1,469805_sentence_2.wav,613ab07eb344dc2516d0d885,5,no,2022-05-27_14h05.12.663,ratings_exp,2022.1.4,Win32,59.98440405
,,,,,,2.041666667,6.8666,9,0.8544,0,28,28,36,1,472263_sentence_1.wav,613ab07eb344dc2516d0d885,5,no,2022-05-27_14h05.12.663,ratings_exp,2022.1.4,Win32,59.98440405
,,,,,,6.979166667,6.8106,9,0.87,0,29,29,3,1,469440_sentence_2.wav,613ab07eb344dc2516d0d885,5,no,2022-05-27_14h05.12.663,ratings_exp,2022.1.4,Win32,59.98440405
,,,,,,1,4.9616,8.020833333,1.4461,0,30,30,60,1,484573_sentence_1.wav,613ab07eb344dc2516d0d885,5,no,2022-05-27_14h05.12.663,ratings_exp,2022.1.4,Win32,59.98440405
,,,,,,9,5.5696,9,0.7537,0,31,31,64,1,485507_sentence_1.wav,613ab07eb344dc2516d0d885,5,no,2022-05-27_14h05.12.663,ratings_exp,2022.1.4,Win32,59.98440405
,,,,,,1.03125,4.0932,8.96875,1.2467,0,32,32,42,1,477072_sentence_1.wav,613ab07eb344dc2516d0d885,5,no,2022-05-27_14h05.12.663,ratings_exp,2022.1.4,Win32,59.98440405
,,,,,,1,3.8342,7.989583333,1.0568,0,33,33,62,1,484860_sentence_1.wav,613ab07eb344dc2516d0d885,5,no,2022-05-27_14h05.12.663,ratings_exp,2022.1.4,Win32,59.98440405
,,,,,,7.114583333,7.478,8.947916667,1.1171,0,34,34,30,1,470408_sentence_1.wav,613ab07eb344dc2516d0d885,5,no,2022-05-27_14h05.12.663,ratings_exp,2022.1.4,Win32,59.98440405
,,,,,,1,3.4423,8.916666667,7.1291,0,35,35,9,1,469558_sentence_2.wav,613ab07eb344dc2516d0d885,5,no,2022-05-27_14h05.12.663,ratings_exp,2022.1.4,Win32,59.98440405
,,,,,,6.9375,7.3615,9,0.6678,0,36,36,68,1,485605_sentence_1.wav,613ab07eb344dc2516d0d885,5,no,2022-05-27_14h05.12.663,ratings_exp,2022.1.4,Win32,59.98440405
,,,,,,6.010416667,6.4926,9,1.1723,0,37,37,27,1,469883_sentence_2.wav,613ab07eb344dc2516d0d885,5,no,2022-05-27_14h05.12.663,ratings_exp,2022.1.4,Win32,59.98440405
,,,,,,1,3.9694,8.90625,1.0982,0,38,38,0,1,469431_sentence_1.wav,613ab07eb344dc2516d0d885,5,no,2022-05-27_14h05.12.663,ratings_exp,2022.1.4,Win32,59.98440405
,,,,,,1.052083333,3.0047,9,0.8831,0,39,39,23,1,469865_sentence_2.wav,613ab07eb344dc2516d0d885,5,no,2022-05-27_14h05.12.663,ratings_exp,2022.1.4,Win32,59.98440405
,,,,,,1,3.4351,8.96875,1.1566,0,40,40,56,1,484457_sentence_1.wav,613ab07eb344dc2516d0d885,5,no,2022-05-27_14h05.12.663,ratings_exp,2022.1.4,Win32,59.98440405
,,,,,,2.958333333,7.2514,8.979166667,1.0422,0,41,41,15,1,469635_sentence_2.wav,613ab07eb344dc2516d0d885,5,no,2022-05-27_14h05.12.663,ratings_exp,2022.1.4,Win32,59.98440405
,,,,,,1,4.2522,8.9375,1.1683,0,42,42,73,1,487696_sentence_2.wav,613ab07eb344dc2516d0d885,5,no,2022-05-27_14h05.12.663,ratings_exp,2022.1.4,Win32,59.98440405
,,,,,,2.041666667,6.1804,9,1.0241,0,43,43,63,1,484860_sentence_2.wav,613ab07eb344dc2516d0d885,5,no,2022-05-27_14h05.12.663,ratings_exp,2022.1.4,Win32,59.98440405
,,,,,,2.041666667,2.3745,7.989583333,1.1593,0,44,44,38,1,472268_sentence_1.wav,613ab07eb344dc2516d0d885,5,no,2022-05-27_14h05.12.663,ratings_exp,2022.1.4,Win32,59.98440405
,,,,,,3.9375,5.6999,9,0.8874,0,45,45,14,1,469635_sentence_1.wav,613ab07eb344dc2516d0d885,5,no,2022-05-27_14h05.12.663,ratings_exp,2022.1.4,Win32,59.98440405
,,,,,,5.0625,6.794,8.010416667,0.808,0,46,46,33,1,470901_sentence_2.wav,613ab07eb344dc2516d0d885,5,no,2022-05-27_14h05.12.663,ratings_exp,2022.1.4,Win32,59.98440405
,,,,,,1.010416667,3.737,6.947916667,1.9753,0,47,47,50,1,481532_sentence_1.wav,613ab07eb344dc2516d0d885,5,no,2022-05-27_14h05.12.663,ratings_exp,2022.1.4,Win32,59.98440405
,,,,,,1.072916667,6.9951,9,1.1814,0,48,48,1,1,469431_sentence_2.wav,613ab07eb344dc2516d0d885,5,no,2022-05-27_14h05.12.663,ratings_exp,2022.1.4,Win32,59.98440405
,,,,,,1.072916667,5.8005,9,0.9916,0,49,49,7,1,469553_sentence_2.wav,613ab07eb344dc2516d0d885,5,no,2022-05-27_14h05.12.663,ratings_exp,2022.1.4,Win32,59.98440405
,,,,,,1,4.0655,6.020833333,1.588,0,50,50,67,1,485567_sentence_2.wav,613ab07eb344dc2516d0d885,5,no,2022-05-27_14h05.12.663,ratings_exp,2022.1.4,Win32,59.98440405
,,,,,,1,4.4382,8.9375,1.0224,0,51,51,75,1,487969_sentence_2.wav,613ab07eb344dc2516d0d885,5,no,2022-05-27_14h05.12.663,ratings_exp,2022.1.4,Win32,59.98440405
,,,,,,8,3.7987,9,0.745,0,52,52,49,1,480419_sentence_2.wav,613ab07eb344dc2516d0d885,5,no,2022-05-27_14h05.12.663,ratings_exp,2022.1.4,Win32,59.98440405
,,,,,,1.03125,3.2033,9,0.9522,0,53,53,6,1,469553_sentence_1.wav,613ab07eb344dc2516d0d885,5,no,2022-05-27_14h05.12.663,ratings_exp,2022.1.4,Win32,59.98440405
,,,,,,1.958333333,3.0718,9,1.0354,0,54,54,29,1,469909_sentence_2.wav,613ab07eb344dc2516d0d885,5,no,2022-05-27_14h05.12.663,ratings_exp,2022.1.4,Win32,59.98440405
,,,,,,8.895833333,3.2581,8.895833333,0.7314,0,55,55,32,1,470901_sentence_1.wav,613ab07eb344dc2516d0d885,5,no,2022-05-27_14h05.12.663,ratings_exp,2022.1.4,Win32,59.98440405
,,,,,,1,4.8045,8.96875,1.1145,0,56,56,71,1,485976_sentence_2.wav,613ab07eb344dc2516d0d885,5,no,2022-05-27_14h05.12.663,ratings_exp,2022.1.4,Win32,59.98440405
,,,,,,7.020833333,4.9546,9,0.8025,0,57,57,48,1,480419_sentence_1.wav,613ab07eb344dc2516d0d885,5,no,2022-05-27_14h05.12.663,ratings_exp,2022.1.4,Win32,59.98440405
,,,,,,1,9.7532,6.96875,2.5715,0,58,58,58,1,484549_sentence_1.wav,613ab07eb344dc2516d0d885,5,no,2022-05-27_14h05.12.663,ratings_exp,2022.1.4,Win32,59.98440405
,,,,,,6.072916667,3.8155,9,0.8912,0,59,59,13,1,469614_sentence_2.wav,613ab07eb344dc2516d0d885,5,no,2022-05-27_14h05.12.663,ratings_exp,2022.1.4,Win32,59.98440405
,,,,,,1,5.489,8.072916667,1.9957,0,60,60,41,1,475707_sentence_2.wav,613ab07eb344dc2516d0d885,5,no,2022-05-27_14h05.12.663,ratings_exp,2022.1.4,Win32,59.98440405
,,,,,,1,4.7597,8.020833333,1.1554,0,61,61,47,1,479904_sentence_2.wav,613ab07eb344dc2516d0d885,5,no,2022-05-27_14h05.12.663,ratings_exp,2022.1.4,Win32,59.98440405
,,,,,,1.0625,2.5048,8.927083333,1.1911,0,62,62,69,1,485605_sentence_2.wav,613ab07eb344dc2516d0d885,5,no,2022-05-27_14h05.12.663,ratings_exp,2022.1.4,Win32,59.98440405
,,,,,,1,2.4943,8.96875,0.9095,0,63,63,57,1,484457_sentence_2.wav,613ab07eb344dc2516d0d885,5,no,2022-05-27_14h05.12.663,ratings_exp,2022.1.4,Win32,59.98440405
,,,,,,8.041666667,7.6422,5.947916667,1.119,0,64,64,37,1,472263_sentence_2.wav,613ab07eb344dc2516d0d885,5,no,2022-05-27_14h05.12.663,ratings_exp,2022.1.4,Win32,59.98440405
,,,,,,8,4.032,8.979166667,0.805,0,65,65,65,1,485507_sentence_2.wav,613ab07eb344dc2516d0d885,5,no,2022-05-27_14h05.12.663,ratings_exp,2022.1.4,Win32,59.98440405
,,,,,,1.104166667,3.505,9,1.398,0,66,66,39,1,472268_sentence_2.wav,613ab07eb344dc2516d0d885,5,no,2022-05-27_14h05.12.663,ratings_exp,2022.1.4,Win32,59.98440405
,,,,,,1.072916667,5.2661,9,1.2714,0,67,67,25,1,469875_sentence_2.wav,613ab07eb344dc2516d0d885,5,no,2022-05-27_14h05.12.663,ratings_exp,2022.1.4,Win32,59.98440405
,,,,,,1.083333333,4.2304,5.9375,2.3591,0,68,68,54,1,484271_sentence_1.wav,613ab07eb344dc2516d0d885,5,no,2022-05-27_14h05.12.663,ratings_exp,2022.1.4,Win32,59.98440405
,,,,,,3.9375,12.4031,9,2.5786,0,69,69,4,1,469495_sentence_1.wav,613ab07eb344dc2516d0d885,5,no,2022-05-27_14h05.12.663,ratings_exp,2022.1.4,Win32,59.98440405
,,,,,,6.0625,5.4066,9,0.7372,0,70,70,45,1,479845_sentence_2.wav,613ab07eb344dc2516d0d885,5,no,2022-05-27_14h05.12.663,ratings_exp,2022.1.4,Win32,59.98440405
,,,,,,8.947916667,4.369,8.947916667,0.6723,0,71,71,2,1,469440_sentence_1.wav,613ab07eb344dc2516d0d885,5,no,2022-05-27_14h05.12.663,ratings_exp,2022.1.4,Win32,59.98440405
,,,,,,5.083333333,4.6137,9,1.2198,0,72,72,10,1,469581_sentence_1.wav,613ab07eb344dc2516d0d885,5,no,2022-05-27_14h05.12.663,ratings_exp,2022.1.4,Win32,59.98440405
,,,,,,3.010416667,5.2603,8.895833333,0.9603,0,73,73,18,1,469737_sentence_1.wav,613ab07eb344dc2516d0d885,5,no,2022-05-27_14h05.12.663,ratings_exp,2022.1.4,Win32,59.98440405
,,,,,,1,3.9827,9,1.2956,0,74,74,77,1,488322_sentence_2.wav,613ab07eb344dc2516d0d885,5,no,2022-05-27_14h05.12.663,ratings_exp,2022.1.4,Win32,59.98440405
,,,,,,1,3.5686,9,0.8524,0,75,75,28,1,469909_sentence_1.wav,613ab07eb344dc2516d0d885,5,no,2022-05-27_14h05.12.663,ratings_exp,2022.1.4,Win32,59.98440405
,,,,,,1,3.3795,9,0.9967,0,76,76,51,1,481532_sentence_2.wav,613ab07eb344dc2516d0d885,5,no,2022-05-27_14h05.12.663,ratings_exp,2022.1.4,Win32,59.98440405
,,,,,,1.020833333,3.8888,7.895833333,0.8879,0,77,77,44,1,479845_sentence_1.wav,613ab07eb344dc2516d0d885,5,no,2022-05-27_14h05.12.663,ratings_exp,2022.1.4,Win32,59.98440405
