key_resp.keys,key_resp.rt,eng_proficiency.response,eng_proficiency.rt,eng_proficiency_2.response,eng_proficiency_2.rt,accent_rating.response,accent_rating.rt,accent_rating_2.response,accent_rating_2.rt,trials.thisRepN,trials.thisTrialN,trials.thisN,trials.thisIndex,trials.ran,stim,participant,Cuántos años tenía cuando ud. empezó a aprender el inglés?,Ha enseñado el español cómo seguna lengua?,date,expName,psychopyVersion,OS,frameRate
space,48.2556,4.99609375,7.9926,5.96875,12.58,7.989583333,15.5473,8.020833333,16.2079,0,0,0,10,1,469581_sentence_1.wav,613bddfaa4471bbe889926ee,13,si,2022-05-27_15h44.30.127,ratings_exp,2022.1.4,Win32,60.03842459
,,,,,,1,30.4418,2.010416667,20.0978,0,1,1,55,1,484271_sentence_2.wav,613bddfaa4471bbe889926ee,13,si,2022-05-27_15h44.30.127,ratings_exp,2022.1.4,Win32,60.03842459
,,,,,,3.96875,23.0488,8.989583333,12.6186,0,2,2,18,1,469737_sentence_1.wav,613bddfaa4471bbe889926ee,13,si,2022-05-27_15h44.30.127,ratings_exp,2022.1.4,Win32,60.03842459
,,,,,,6.010416667,38.5747,8.979166667,13.4105,0,3,3,46,1,479904_sentence_1.wav,613bddfaa4471bbe889926ee,13,si,2022-05-27_15h44.30.127,ratings_exp,2022.1.4,Win32,60.03842459
,,,,,,7.989583333,21.5373,8.989583333,10.3668,0,4,4,11,1,469581_sentence_2.wav,613bddfaa4471bbe889926ee,13,si,2022-05-27_15h44.30.127,ratings_exp,2022.1.4,Win32,60.03842459
,,,,,,4,20.0701,7,16.2032,0,5,5,43,1,477072_sentence_2.wav,613bddfaa4471bbe889926ee,13,si,2022-05-27_15h44.30.127,ratings_exp,2022.1.4,Win32,60.03842459
,,,,,,3.989583333,27.4666,8.96875,11.1606,0,6,6,47,1,479904_sentence_2.wav,613bddfaa4471bbe889926ee,13,si,2022-05-27_15h44.30.127,ratings_exp,2022.1.4,Win32,60.03842459
,,,,,,8.052083333,14.9905,9,9.0819,0,7,7,38,1,472268_sentence_1.wav,613bddfaa4471bbe889926ee,13,si,2022-05-27_15h44.30.127,ratings_exp,2022.1.4,Win32,60.03842459
,,,,,,1,14.5302,7.010416667,14.5079,0,8,8,9,1,469558_sentence_2.wav,613bddfaa4471bbe889926ee,13,si,2022-05-27_15h44.30.127,ratings_exp,2022.1.4,Win32,60.03842459
,,,,,,7.010416667,12.9867,9,8.4907,0,9,9,16,1,469639_sentence_1.wav,613bddfaa4471bbe889926ee,13,si,2022-05-27_15h44.30.127,ratings_exp,2022.1.4,Win32,60.03842459
,,,,,,7,18.3981,9,10.9371,0,10,10,28,1,469909_sentence_1.wav,613bddfaa4471bbe889926ee,13,si,2022-05-27_15h44.30.127,ratings_exp,2022.1.4,Win32,60.03842459
,,,,,,2.979166667,14.1253,8.979166667,11.6836,0,11,11,40,1,475707_sentence_1.wav,613bddfaa4471bbe889926ee,13,si,2022-05-27_15h44.30.127,ratings_exp,2022.1.4,Win32,60.03842459
,,,,,,1,12.985,5.947916667,13.2328,0,12,12,5,1,469495_sentence_2.wav,613bddfaa4471bbe889926ee,13,si,2022-05-27_15h44.30.127,ratings_exp,2022.1.4,Win32,60.03842459
,,,,,,5.9375,17.6538,9,13.0024,0,13,13,36,1,472263_sentence_1.wav,613bddfaa4471bbe889926ee,13,si,2022-05-27_15h44.30.127,ratings_exp,2022.1.4,Win32,60.03842459
,,,,,,8.96875,22.325,8.96875,9.6189,0,14,14,68,1,485605_sentence_1.wav,613bddfaa4471bbe889926ee,13,si,2022-05-27_15h44.30.127,ratings_exp,2022.1.4,Win32,60.03842459
,,,,,,8.041666667,25.1132,8.979166667,13.4549,0,15,15,45,1,479845_sentence_2.wav,613bddfaa4471bbe889926ee,13,si,2022-05-27_15h44.30.127,ratings_exp,2022.1.4,Win32,60.03842459
,,,,,,3,18.2757,9,16.3722,0,16,16,41,1,475707_sentence_2.wav,613bddfaa4471bbe889926ee,13,si,2022-05-27_15h44.30.127,ratings_exp,2022.1.4,Win32,60.03842459
,,,,,,4.895833333,15.197,9,3.271,0,17,17,72,1,487696_sentence_1.wav,613bddfaa4471bbe889926ee,13,si,2022-05-27_15h44.30.127,ratings_exp,2022.1.4,Win32,60.03842459
,,,,,,1.020833333,13.8207,3.020833333,19.2686,0,18,18,54,1,484271_sentence_1.wav,613bddfaa4471bbe889926ee,13,si,2022-05-27_15h44.30.127,ratings_exp,2022.1.4,Win32,60.03842459
,,,,,,7.96875,14.5227,8.989583333,8.0777,0,19,19,48,1,480419_sentence_1.wav,613bddfaa4471bbe889926ee,13,si,2022-05-27_15h44.30.127,ratings_exp,2022.1.4,Win32,60.03842459
,,,,,,6,16.7976,8.958333333,3.1357,0,20,20,57,1,484457_sentence_2.wav,613bddfaa4471bbe889926ee,13,si,2022-05-27_15h44.30.127,ratings_exp,2022.1.4,Win32,60.03842459
,,,,,,4.010416667,15.258,8.947916667,9.1039,0,21,21,7,1,469553_sentence_2.wav,613bddfaa4471bbe889926ee,13,si,2022-05-27_15h44.30.127,ratings_exp,2022.1.4,Win32,60.03842459
,,,,,,8.010416667,15.6048,9,4.2789,0,22,22,67,1,485567_sentence_2.wav,613bddfaa4471bbe889926ee,13,si,2022-05-27_15h44.30.127,ratings_exp,2022.1.4,Win32,60.03842459
,,,,,,9,13.7922,9,2.7467,0,23,23,30,1,470408_sentence_1.wav,613bddfaa4471bbe889926ee,13,si,2022-05-27_15h44.30.127,ratings_exp,2022.1.4,Win32,60.03842459
,,,,,,7.020833333,13.3918,9,3.8291,0,24,24,33,1,470901_sentence_2.wav,613bddfaa4471bbe889926ee,13,si,2022-05-27_15h44.30.127,ratings_exp,2022.1.4,Win32,60.03842459
,,,,,,9,15.506,9,2.4987,0,25,25,29,1,469909_sentence_2.wav,613bddfaa4471bbe889926ee,13,si,2022-05-27_15h44.30.127,ratings_exp,2022.1.4,Win32,60.03842459
,,,,,,1,5.3847,8,12.5301,0,26,26,70,1,485976_sentence_1.wav,613bddfaa4471bbe889926ee,13,si,2022-05-27_15h44.30.127,ratings_exp,2022.1.4,Win32,60.03842459
,,,,,,5.947916667,25.1284,8.96875,10.2728,0,27,27,44,1,479845_sentence_1.wav,613bddfaa4471bbe889926ee,13,si,2022-05-27_15h44.30.127,ratings_exp,2022.1.4,Win32,60.03842459
,,,,,,7.020833333,15.2988,9,3.1727,0,28,28,31,1,470408_sentence_2.wav,613bddfaa4471bbe889926ee,13,si,2022-05-27_15h44.30.127,ratings_exp,2022.1.4,Win32,60.03842459
,,,,,,9,10.1559,9,3.6033,0,29,29,76,1,488322_sentence_1.wav,613bddfaa4471bbe889926ee,13,si,2022-05-27_15h44.30.127,ratings_exp,2022.1.4,Win32,60.03842459
,,,,,,1.010416667,16.6151,7.03125,8.3052,0,30,30,17,1,469639_sentence_2.wav,613bddfaa4471bbe889926ee,13,si,2022-05-27_15h44.30.127,ratings_exp,2022.1.4,Win32,60.03842459
,,,,,,7.03125,14.8016,9,10.4102,0,31,31,39,1,472268_sentence_2.wav,613bddfaa4471bbe889926ee,13,si,2022-05-27_15h44.30.127,ratings_exp,2022.1.4,Win32,60.03842459
,,,,,,9,16.5984,9,2.7794,0,32,32,12,1,469614_sentence_1.wav,613bddfaa4471bbe889926ee,13,si,2022-05-27_15h44.30.127,ratings_exp,2022.1.4,Win32,60.03842459
,,,,,,2.979166667,11.3704,9,3.9786,0,33,33,66,1,485567_sentence_1.wav,613bddfaa4471bbe889926ee,13,si,2022-05-27_15h44.30.127,ratings_exp,2022.1.4,Win32,60.03842459
,,,,,,4.052083333,17.3757,8.989583333,2.8155,0,34,34,65,1,485507_sentence_2.wav,613bddfaa4471bbe889926ee,13,si,2022-05-27_15h44.30.127,ratings_exp,2022.1.4,Win32,60.03842459
,,,,,,2,9.5097,8.9375,4.0775,0,35,35,74,1,487969_sentence_1.wav,613bddfaa4471bbe889926ee,13,si,2022-05-27_15h44.30.127,ratings_exp,2022.1.4,Win32,60.03842459
,,,,,,9,12.0392,9,1.6794,0,36,36,26,1,469883_sentence_1.wav,613bddfaa4471bbe889926ee,13,si,2022-05-27_15h44.30.127,ratings_exp,2022.1.4,Win32,60.03842459
,,,,,,7.041666667,14.7943,9,2.2567,0,37,37,1,1,469431_sentence_2.wav,613bddfaa4471bbe889926ee,13,si,2022-05-27_15h44.30.127,ratings_exp,2022.1.4,Win32,60.03842459
,,,,,,5,21.1042,9,3.8156,0,38,38,14,1,469635_sentence_1.wav,613bddfaa4471bbe889926ee,13,si,2022-05-27_15h44.30.127,ratings_exp,2022.1.4,Win32,60.03842459
,,,,,,2.979166667,10.528,8,5.721,0,39,39,71,1,485976_sentence_2.wav,613bddfaa4471bbe889926ee,13,si,2022-05-27_15h44.30.127,ratings_exp,2022.1.4,Win32,60.03842459
,,,,,,2.958333333,12.8536,5.9375,8.8084,0,40,40,52,1,481962_sentence_1.wav,613bddfaa4471bbe889926ee,13,si,2022-05-27_15h44.30.127,ratings_exp,2022.1.4,Win32,60.03842459
,,,,,,7.927083333,12.239,8.90625,2.0494,0,41,41,32,1,470901_sentence_1.wav,613bddfaa4471bbe889926ee,13,si,2022-05-27_15h44.30.127,ratings_exp,2022.1.4,Win32,60.03842459
,,,,,,7.989583333,19.9272,9,2.0997,0,42,42,49,1,480419_sentence_2.wav,613bddfaa4471bbe889926ee,13,si,2022-05-27_15h44.30.127,ratings_exp,2022.1.4,Win32,60.03842459
,,,,,,1,12.9375,4.03125,8.2276,0,43,43,50,1,481532_sentence_1.wav,613bddfaa4471bbe889926ee,13,si,2022-05-27_15h44.30.127,ratings_exp,2022.1.4,Win32,60.03842459
,,,,,,7.979166667,12.2397,9,2.4832,0,44,44,13,1,469614_sentence_2.wav,613bddfaa4471bbe889926ee,13,si,2022-05-27_15h44.30.127,ratings_exp,2022.1.4,Win32,60.03842459
,,,,,,7.947916667,14.6883,8.979166667,1.5249,0,45,45,24,1,469875_sentence_1.wav,613bddfaa4471bbe889926ee,13,si,2022-05-27_15h44.30.127,ratings_exp,2022.1.4,Win32,60.03842459
,,,,,,2.020833333,14.2354,1,14.4426,0,46,46,37,1,472263_sentence_2.wav,613bddfaa4471bbe889926ee,13,si,2022-05-27_15h44.30.127,ratings_exp,2022.1.4,Win32,60.03842459
,,,,,,1.020833333,15.3057,1.020833333,1.4305,0,47,47,34,1,471720_sentence_1.wav,613bddfaa4471bbe889926ee,13,si,2022-05-27_15h44.30.127,ratings_exp,2022.1.4,Win32,60.03842459
,,,,,,3.947916667,16.2469,3.947916667,22.8,0,48,48,20,1,469805_sentence_1.wav,613bddfaa4471bbe889926ee,13,si,2022-05-27_15h44.30.127,ratings_exp,2022.1.4,Win32,60.03842459
,,,,,,8.927083333,13.8382,8.947916667,12.6152,0,49,49,53,1,481962_sentence_2.wav,613bddfaa4471bbe889926ee,13,si,2022-05-27_15h44.30.127,ratings_exp,2022.1.4,Win32,60.03842459
,,,,,,3.010416667,12.7007,7.052083333,12.5197,0,50,50,63,1,484860_sentence_2.wav,613bddfaa4471bbe889926ee,13,si,2022-05-27_15h44.30.127,ratings_exp,2022.1.4,Win32,60.03842459
,,,,,,5.96875,16.2024,7.947916667,11.3658,0,51,51,25,1,469875_sentence_2.wav,613bddfaa4471bbe889926ee,13,si,2022-05-27_15h44.30.127,ratings_exp,2022.1.4,Win32,60.03842459
,,,,,,2.010416667,24.7639,8.989583333,11.086,0,52,52,0,1,469431_sentence_1.wav,613bddfaa4471bbe889926ee,13,si,2022-05-27_15h44.30.127,ratings_exp,2022.1.4,Win32,60.03842459
,,,,,,3.041666667,13.3097,8.010416667,2.3468,0,53,53,4,1,469495_sentence_1.wav,613bddfaa4471bbe889926ee,13,si,2022-05-27_15h44.30.127,ratings_exp,2022.1.4,Win32,60.03842459
,,,,,,1.010416667,9.2128,2,10.9823,0,54,54,58,1,484549_sentence_1.wav,613bddfaa4471bbe889926ee,13,si,2022-05-27_15h44.30.127,ratings_exp,2022.1.4,Win32,60.03842459
,,,,,,7.020833333,14.0247,8.96875,2.331,0,55,55,6,1,469553_sentence_1.wav,613bddfaa4471bbe889926ee,13,si,2022-05-27_15h44.30.127,ratings_exp,2022.1.4,Win32,60.03842459
,,,,,,8,11.1427,9,2.501,0,56,56,56,1,484457_sentence_1.wav,613bddfaa4471bbe889926ee,13,si,2022-05-27_15h44.30.127,ratings_exp,2022.1.4,Win32,60.03842459
,,,,,,2.979166667,13.3712,8.041666667,12.8797,0,57,57,19,1,469737_sentence_2.wav,613bddfaa4471bbe889926ee,13,si,2022-05-27_15h44.30.127,ratings_exp,2022.1.4,Win32,60.03842459
,,,,,,2.020833333,15.7293,6.979166667,15.8491,0,58,58,60,1,484573_sentence_1.wav,613bddfaa4471bbe889926ee,13,si,2022-05-27_15h44.30.127,ratings_exp,2022.1.4,Win32,60.03842459
,,,,,,2.020833333,11.6677,4.010416667,11.4696,0,59,59,73,1,487696_sentence_2.wav,613bddfaa4471bbe889926ee,13,si,2022-05-27_15h44.30.127,ratings_exp,2022.1.4,Win32,60.03842459
,,,,,,1.010416667,15.6961,7.989583333,15.4338,0,60,60,8,1,469558_sentence_1.wav,613bddfaa4471bbe889926ee,13,si,2022-05-27_15h44.30.127,ratings_exp,2022.1.4,Win32,60.03842459
,,,,,,4.03125,15.5067,4.979166667,14.4874,0,61,61,62,1,484860_sentence_1.wav,613bddfaa4471bbe889926ee,13,si,2022-05-27_15h44.30.127,ratings_exp,2022.1.4,Win32,60.03842459
,,,,,,8.03125,9.8098,8.96875,3.8084,0,62,62,2,1,469440_sentence_1.wav,613bddfaa4471bbe889926ee,13,si,2022-05-27_15h44.30.127,ratings_exp,2022.1.4,Win32,60.03842459
,,,,,,9,10.3026,8.989583333,4.8136,0,63,63,3,1,469440_sentence_2.wav,613bddfaa4471bbe889926ee,13,si,2022-05-27_15h44.30.127,ratings_exp,2022.1.4,Win32,60.03842459
,,,,,,8.947916667,7.5613,8.979166667,3.2572,0,64,64,77,1,488322_sentence_2.wav,613bddfaa4471bbe889926ee,13,si,2022-05-27_15h44.30.127,ratings_exp,2022.1.4,Win32,60.03842459
,,,,,,1.989583333,11.7364,7.979166667,4.2852,0,65,65,23,1,469865_sentence_2.wav,613bddfaa4471bbe889926ee,13,si,2022-05-27_15h44.30.127,ratings_exp,2022.1.4,Win32,60.03842459
,,,,,,5.989583333,13.5643,8.958333333,2.603,0,66,66,27,1,469883_sentence_2.wav,613bddfaa4471bbe889926ee,13,si,2022-05-27_15h44.30.127,ratings_exp,2022.1.4,Win32,60.03842459
,,,,,,2.020833333,10.5595,6.989583333,4.6302,0,67,67,22,1,469865_sentence_1.wav,613bddfaa4471bbe889926ee,13,si,2022-05-27_15h44.30.127,ratings_exp,2022.1.4,Win32,60.03842459
,,,,,,1.020833333,10.7765,2.989583333,12.5598,0,68,68,61,1,484573_sentence_2.wav,613bddfaa4471bbe889926ee,13,si,2022-05-27_15h44.30.127,ratings_exp,2022.1.4,Win32,60.03842459
,,,,,,2.041666667,14.3696,4.96875,15.7436,0,69,69,21,1,469805_sentence_2.wav,613bddfaa4471bbe889926ee,13,si,2022-05-27_15h44.30.127,ratings_exp,2022.1.4,Win32,60.03842459
,,,,,,1,15.6037,8.03125,13.2674,0,70,70,59,1,484549_sentence_2.wav,613bddfaa4471bbe889926ee,13,si,2022-05-27_15h44.30.127,ratings_exp,2022.1.4,Win32,60.03842459
,,,,,,2.020833333,16.3633,8.989583333,10.7259,0,71,71,75,1,487969_sentence_2.wav,613bddfaa4471bbe889926ee,13,si,2022-05-27_15h44.30.127,ratings_exp,2022.1.4,Win32,60.03842459
,,,,,,2.989583333,12.8091,8.979166667,7.0978,0,72,72,69,1,485605_sentence_2.wav,613bddfaa4471bbe889926ee,13,si,2022-05-27_15h44.30.127,ratings_exp,2022.1.4,Win32,60.03842459
,,,,,,4.989583333,15.4756,8.989583333,2.2491,0,73,73,64,1,485507_sentence_1.wav,613bddfaa4471bbe889926ee,13,si,2022-05-27_15h44.30.127,ratings_exp,2022.1.4,Win32,60.03842459
,,,,,,1.979166667,12.0732,8.020833333,17.6977,0,74,74,15,1,469635_sentence_2.wav,613bddfaa4471bbe889926ee,13,si,2022-05-27_15h44.30.127,ratings_exp,2022.1.4,Win32,60.03842459
,,,,,,1,11.8476,2,1.9206,0,75,75,51,1,481532_sentence_2.wav,613bddfaa4471bbe889926ee,13,si,2022-05-27_15h44.30.127,ratings_exp,2022.1.4,Win32,60.03842459
,,,,,,1.010416667,12.544,2.010416667,1.2589,0,76,76,35,1,471720_sentence_2.wav,613bddfaa4471bbe889926ee,13,si,2022-05-27_15h44.30.127,ratings_exp,2022.1.4,Win32,60.03842459
,,,,,,2.020833333,13.8344,7,5.6727,0,77,77,42,1,477072_sentence_1.wav,613bddfaa4471bbe889926ee,13,si,2022-05-27_15h44.30.127,ratings_exp,2022.1.4,Win32,60.03842459
