key_resp.keys,key_resp.rt,eng_proficiency.response,eng_proficiency.rt,eng_proficiency_2.response,eng_proficiency_2.rt,accent_rating.response,accent_rating.rt,accent_rating_2.response,accent_rating_2.rt,trials.thisRepN,trials.thisTrialN,trials.thisN,trials.thisIndex,trials.ran,stim,participant,Cuántos años tenía cuando ud. empezó a aprender el inglés?,Ha enseñado el español cómo seguna lengua?,date,expName,psychopyVersion,OS,frameRate
space,22.4496,3.958333333,4.0506,7,5.893,6.014815154,15.8635,7.933333785,9.7437,0,0,0,31,1,470408_sentence_2.wav,6142883565f2f12724b5e613,6,No,2022-05-27_16h31.27.099,ratings_exp,2022.1.4,Win32,59.51318217
,,,,,,3.962962963,13.7582,7.014815154,3.5631,0,1,1,4,1,469495_sentence_1.wav,6142883565f2f12724b5e613,6,No,2022-05-27_16h31.27.099,ratings_exp,2022.1.4,Win32,59.51318217
,,,,,,6.955555669,12.1238,8,4.0464,0,2,2,14,1,469635_sentence_1.wav,6142883565f2f12724b5e613,6,No,2022-05-27_16h31.27.099,ratings_exp,2022.1.4,Win32,59.51318217
,,,,,,7.022222448,13.119,7.985185411,5.1818,0,3,3,49,1,480419_sentence_2.wav,6142883565f2f12724b5e613,6,No,2022-05-27_16h31.27.099,ratings_exp,2022.1.4,Win32,59.51318217
,,,,,,6.992592706,10.4469,7.918519197,3.4646,0,4,4,1,1,469431_sentence_2.wav,6142883565f2f12724b5e613,6,No,2022-05-27_16h31.27.099,ratings_exp,2022.1.4,Win32,59.51318217
,,,,,,2.925925926,9.9876,4.051852191,3.2213,0,5,5,34,1,471720_sentence_1.wav,6142883565f2f12724b5e613,6,No,2022-05-27_16h31.27.099,ratings_exp,2022.1.4,Win32,59.51318217
,,,,,,4.007407294,13.7546,5.985185411,3.1013,0,6,6,37,1,472263_sentence_2.wav,6142883565f2f12724b5e613,6,No,2022-05-27_16h31.27.099,ratings_exp,2022.1.4,Win32,59.51318217
,,,,,,7.044444331,8.0975,8.066667345,3.6573,0,7,7,77,1,488322_sentence_2.wav,6142883565f2f12724b5e613,6,No,2022-05-27_16h31.27.099,ratings_exp,2022.1.4,Win32,59.51318217
,,,,,,6.088889228,11.5488,7.918519197,3.9382,0,8,8,36,1,472263_sentence_1.wav,6142883565f2f12724b5e613,6,No,2022-05-27_16h31.27.099,ratings_exp,2022.1.4,Win32,59.51318217
,,,,,,6.970370257,12.2146,6.977778117,2.4233,0,9,9,68,1,485605_sentence_1.wav,6142883565f2f12724b5e613,6,No,2022-05-27_16h31.27.099,ratings_exp,2022.1.4,Win32,59.51318217
,,,,,,1.007407577,5.9284,3.096296522,4.3569,0,10,10,59,1,484549_sentence_2.wav,6142883565f2f12724b5e613,6,No,2022-05-27_16h31.27.099,ratings_exp,2022.1.4,Win32,59.51318217
,,,,,,8.985185411,6.3254,8.970370822,2.0476,0,11,11,27,1,469883_sentence_2.wav,6142883565f2f12724b5e613,6,No,2022-05-27_16h31.27.099,ratings_exp,2022.1.4,Win32,59.51318217
,,,,,,1,6.7816,3.014815154,7.3647,0,12,12,17,1,469639_sentence_2.wav,6142883565f2f12724b5e613,6,No,2022-05-27_16h31.27.099,ratings_exp,2022.1.4,Win32,59.51318217
,,,,,,8.051851626,8.1245,6.970370257,2.5977,0,13,13,64,1,485507_sentence_1.wav,6142883565f2f12724b5e613,6,No,2022-05-27_16h31.27.099,ratings_exp,2022.1.4,Win32,59.51318217
,,,,,,2.955555669,6.829,5.022222448,4.798,0,14,14,23,1,469865_sentence_2.wav,6142883565f2f12724b5e613,6,No,2022-05-27_16h31.27.099,ratings_exp,2022.1.4,Win32,59.51318217
,,,,,,2.94074108,10.1323,2.985185411,2.1565,0,15,15,11,1,469581_sentence_2.wav,6142883565f2f12724b5e613,6,No,2022-05-27_16h31.27.099,ratings_exp,2022.1.4,Win32,59.51318217
,,,,,,4.022222448,6.5458,4.007407294,2.7162,0,16,16,41,1,475707_sentence_2.wav,6142883565f2f12724b5e613,6,No,2022-05-27_16h31.27.099,ratings_exp,2022.1.4,Win32,59.51318217
,,,,,,6,8.8062,7.037037037,4.475,0,17,17,45,1,479845_sentence_2.wav,6142883565f2f12724b5e613,6,No,2022-05-27_16h31.27.099,ratings_exp,2022.1.4,Win32,59.51318217
,,,,,,4.044444331,8.1468,4.044444331,2.9433,0,18,18,50,1,481532_sentence_1.wav,6142883565f2f12724b5e613,6,No,2022-05-27_16h31.27.099,ratings_exp,2022.1.4,Win32,59.51318217
,,,,,,6.037037037,10.2449,7.014815154,2.6607,0,19,19,13,1,469614_sentence_2.wav,6142883565f2f12724b5e613,6,No,2022-05-27_16h31.27.099,ratings_exp,2022.1.4,Win32,59.51318217
,,,,,,7.014815154,10.6908,7.014815154,1.4039,0,20,20,26,1,469883_sentence_1.wav,6142883565f2f12724b5e613,6,No,2022-05-27_16h31.27.099,ratings_exp,2022.1.4,Win32,59.51318217
,,,,,,1,3.1231,3.074074074,2.3168,0,21,21,70,1,485976_sentence_1.wav,6142883565f2f12724b5e613,6,No,2022-05-27_16h31.27.099,ratings_exp,2022.1.4,Win32,59.51318217
,,,,,,1.029629743,2.7073,1.029629743,1.4433,0,22,22,58,1,484549_sentence_1.wav,6142883565f2f12724b5e613,6,No,2022-05-27_16h31.27.099,ratings_exp,2022.1.4,Win32,59.51318217
,,,,,,1.029629743,4.2635,3.044444331,2.1686,0,23,23,61,1,484573_sentence_2.wav,6142883565f2f12724b5e613,6,No,2022-05-27_16h31.27.099,ratings_exp,2022.1.4,Win32,59.51318217
,,,,,,2.970370257,5.6908,5.014815154,4.2303,0,24,24,39,1,472268_sentence_2.wav,6142883565f2f12724b5e613,6,No,2022-05-27_16h31.27.099,ratings_exp,2022.1.4,Win32,59.51318217
,,,,,,1,3.856,1.014814871,2.4685,0,25,25,35,1,471720_sentence_2.wav,6142883565f2f12724b5e613,6,No,2022-05-27_16h31.27.099,ratings_exp,2022.1.4,Win32,59.51318217
,,,,,,6.037037037,7.173,6.059259485,2.815,0,26,26,16,1,469639_sentence_1.wav,6142883565f2f12724b5e613,6,No,2022-05-27_16h31.27.099,ratings_exp,2022.1.4,Win32,59.51318217
,,,,,,3.029629743,8.4047,3.992592706,1.7827,0,27,27,75,1,487969_sentence_2.wav,6142883565f2f12724b5e613,6,No,2022-05-27_16h31.27.099,ratings_exp,2022.1.4,Win32,59.51318217
,,,,,,5.94074108,7.6067,6.896296183,3.2385,0,28,28,20,1,469805_sentence_1.wav,6142883565f2f12724b5e613,6,No,2022-05-27_16h31.27.099,ratings_exp,2022.1.4,Win32,59.51318217
,,,,,,7.933333785,8.5289,7.933333785,4.1303,0,29,29,24,1,469875_sentence_1.wav,6142883565f2f12724b5e613,6,No,2022-05-27_16h31.27.099,ratings_exp,2022.1.4,Win32,59.51318217
,,,,,,3.044444331,6.0214,5.992592706,2.5916,0,30,30,29,1,469909_sentence_2.wav,6142883565f2f12724b5e613,6,No,2022-05-27_16h31.27.099,ratings_exp,2022.1.4,Win32,59.51318217
,,,,,,3.977778117,9.1446,6.051852191,1.6486,0,31,31,25,1,469875_sentence_2.wav,6142883565f2f12724b5e613,6,No,2022-05-27_16h31.27.099,ratings_exp,2022.1.4,Win32,59.51318217
,,,,,,5.977778117,7.3243,4.029629743,2.4147,0,32,32,63,1,484860_sentence_2.wav,6142883565f2f12724b5e613,6,No,2022-05-27_16h31.27.099,ratings_exp,2022.1.4,Win32,59.51318217
,,,,,,6.06666678,5.0038,6.06666678,1.8522,0,33,33,32,1,470901_sentence_1.wav,6142883565f2f12724b5e613,6,No,2022-05-27_16h31.27.099,ratings_exp,2022.1.4,Win32,59.51318217
,,,,,,6.06666678,10.0589,7.051852191,3.4292,0,34,34,21,1,469805_sentence_2.wav,6142883565f2f12724b5e613,6,No,2022-05-27_16h31.27.099,ratings_exp,2022.1.4,Win32,59.51318217
,,,,,,1.074074074,3.326,3.059259485,2.3696,0,35,35,56,1,484457_sentence_1.wav,6142883565f2f12724b5e613,6,No,2022-05-27_16h31.27.099,ratings_exp,2022.1.4,Win32,59.51318217
,,,,,,6.029629743,9.0924,8,1.23,0,36,36,22,1,469865_sentence_1.wav,6142883565f2f12724b5e613,6,No,2022-05-27_16h31.27.099,ratings_exp,2022.1.4,Win32,59.51318217
,,,,,,1.007407577,4.2167,2.93333322,1.6137,0,37,37,44,1,479845_sentence_1.wav,6142883565f2f12724b5e613,6,No,2022-05-27_16h31.27.099,ratings_exp,2022.1.4,Win32,59.51318217
,,,,,,1.022222166,3.4793,3.029629743,1.9573,0,38,38,53,1,481962_sentence_2.wav,6142883565f2f12724b5e613,6,No,2022-05-27_16h31.27.099,ratings_exp,2022.1.4,Win32,59.51318217
,,,,,,1,4.274,4.007407294,2.2329,0,39,39,72,1,487696_sentence_1.wav,6142883565f2f12724b5e613,6,No,2022-05-27_16h31.27.099,ratings_exp,2022.1.4,Win32,59.51318217
,,,,,,6.022222448,8.9763,7,3.1218,0,40,40,19,1,469737_sentence_2.wav,6142883565f2f12724b5e613,6,No,2022-05-27_16h31.27.099,ratings_exp,2022.1.4,Win32,59.51318217
,,,,,,1,6.6496,1,1.6786,0,41,41,55,1,484271_sentence_2.wav,6142883565f2f12724b5e613,6,No,2022-05-27_16h31.27.099,ratings_exp,2022.1.4,Win32,59.51318217
,,,,,,8.00740786,6.9755,8.00740786,1.2992,0,42,42,30,1,470408_sentence_1.wav,6142883565f2f12724b5e613,6,No,2022-05-27_16h31.27.099,ratings_exp,2022.1.4,Win32,59.51318217
,,,,,,6.948148374,6.1436,6.992592706,1.2792,0,43,43,18,1,469737_sentence_1.wav,6142883565f2f12724b5e613,6,No,2022-05-27_16h31.27.099,ratings_exp,2022.1.4,Win32,59.51318217
,,,,,,1.06666678,5.8422,2.029629743,2.3985,0,44,44,62,1,484860_sentence_1.wav,6142883565f2f12724b5e613,6,No,2022-05-27_16h31.27.099,ratings_exp,2022.1.4,Win32,59.51318217
,,,,,,3.029629743,4.8617,5.94074108,1.6089,0,45,45,66,1,485567_sentence_1.wav,6142883565f2f12724b5e613,6,No,2022-05-27_16h31.27.099,ratings_exp,2022.1.4,Win32,59.51318217
,,,,,,1.022222166,2.9876,2.918518632,2.6852,0,46,46,8,1,469558_sentence_1.wav,6142883565f2f12724b5e613,6,No,2022-05-27_16h31.27.099,ratings_exp,2022.1.4,Win32,59.51318217
,,,,,,5.977778117,6.4661,8.044444897,5.1413,0,47,47,33,1,470901_sentence_2.wav,6142883565f2f12724b5e613,6,No,2022-05-27_16h31.27.099,ratings_exp,2022.1.4,Win32,59.51318217
,,,,,,4.022222448,4.9997,7.014815154,1.7637,0,48,48,3,1,469440_sentence_2.wav,6142883565f2f12724b5e613,6,No,2022-05-27_16h31.27.099,ratings_exp,2022.1.4,Win32,59.51318217
,,,,,,1,3.7223,1,1.0655,0,49,49,54,1,484271_sentence_1.wav,6142883565f2f12724b5e613,6,No,2022-05-27_16h31.27.099,ratings_exp,2022.1.4,Win32,59.51318217
,,,,,,3,5.3914,6.059259485,1.8335,0,50,50,74,1,487969_sentence_1.wav,6142883565f2f12724b5e613,6,No,2022-05-27_16h31.27.099,ratings_exp,2022.1.4,Win32,59.51318217
,,,,,,2.037037037,5.5883,5.985185411,1.4876,0,51,51,57,1,484457_sentence_2.wav,6142883565f2f12724b5e613,6,No,2022-05-27_16h31.27.099,ratings_exp,2022.1.4,Win32,59.51318217
,,,,,,1,5.0714,4.081481368,1.868,0,52,52,9,1,469558_sentence_2.wav,6142883565f2f12724b5e613,6,No,2022-05-27_16h31.27.099,ratings_exp,2022.1.4,Win32,59.51318217
,,,,,,4.007407294,6.3441,5.970370257,2.0105,0,53,53,0,1,469431_sentence_1.wav,6142883565f2f12724b5e613,6,No,2022-05-27_16h31.27.099,ratings_exp,2022.1.4,Win32,59.51318217
,,,,,,6.955555669,6.5743,7.977777552,2.8194,0,54,54,12,1,469614_sentence_1.wav,6142883565f2f12724b5e613,6,No,2022-05-27_16h31.27.099,ratings_exp,2022.1.4,Win32,59.51318217
,,,,,,3,3.5405,5.93333322,1.3347,0,55,55,47,1,479904_sentence_2.wav,6142883565f2f12724b5e613,6,No,2022-05-27_16h31.27.099,ratings_exp,2022.1.4,Win32,59.51318217
,,,,,,5.93333322,7.1618,6.051852191,2.1677,0,56,56,69,1,485605_sentence_2.wav,6142883565f2f12724b5e613,6,No,2022-05-27_16h31.27.099,ratings_exp,2022.1.4,Win32,59.51318217
,,,,,,1.007407577,4.4566,2.903704043,1.1683,0,57,57,42,1,477072_sentence_1.wav,6142883565f2f12724b5e613,6,No,2022-05-27_16h31.27.099,ratings_exp,2022.1.4,Win32,59.51318217
,,,,,,1.029629743,5.1372,3.977778117,4.2552,0,58,58,43,1,477072_sentence_2.wav,6142883565f2f12724b5e613,6,No,2022-05-27_16h31.27.099,ratings_exp,2022.1.4,Win32,59.51318217
,,,,,,3.977778117,6.4136,3.977778117,2.3136,0,59,59,67,1,485567_sentence_2.wav,6142883565f2f12724b5e613,6,No,2022-05-27_16h31.27.099,ratings_exp,2022.1.4,Win32,59.51318217
,,,,,,5.985185411,5.5491,6.911111337,2.5225,0,60,60,40,1,475707_sentence_1.wav,6142883565f2f12724b5e613,6,No,2022-05-27_16h31.27.099,ratings_exp,2022.1.4,Win32,59.51318217
,,,,,,1,3.0949,3.081481368,1.6066,0,61,61,38,1,472268_sentence_1.wav,6142883565f2f12724b5e613,6,No,2022-05-27_16h31.27.099,ratings_exp,2022.1.4,Win32,59.51318217
,,,,,,8.044444897,6.8726,8.940740515,2.5496,0,62,62,76,1,488322_sentence_1.wav,6142883565f2f12724b5e613,6,No,2022-05-27_16h31.27.099,ratings_exp,2022.1.4,Win32,59.51318217
,,,,,,1.007407577,3.1645,2.911111337,1.6403,0,63,63,5,1,469495_sentence_2.wav,6142883565f2f12724b5e613,6,No,2022-05-27_16h31.27.099,ratings_exp,2022.1.4,Win32,59.51318217
,,,,,,8.955556234,7.2398,8.955556234,1.0907,0,64,64,2,1,469440_sentence_1.wav,6142883565f2f12724b5e613,6,No,2022-05-27_16h31.27.099,ratings_exp,2022.1.4,Win32,59.51318217
,,,,,,1,4.2307,3.93333322,2.4399,0,65,65,73,1,487696_sentence_2.wav,6142883565f2f12724b5e613,6,No,2022-05-27_16h31.27.099,ratings_exp,2022.1.4,Win32,59.51318217
,,,,,,1.022222166,3.076,3.970370257,3.4627,0,66,66,71,1,485976_sentence_2.wav,6142883565f2f12724b5e613,6,No,2022-05-27_16h31.27.099,ratings_exp,2022.1.4,Win32,59.51318217
,,,,,,4.007407294,4.2239,5.051852191,1.7923,0,67,67,28,1,469909_sentence_1.wav,6142883565f2f12724b5e613,6,No,2022-05-27_16h31.27.099,ratings_exp,2022.1.4,Win32,59.51318217
,,,,,,3.955555669,5.9558,4.977778117,4.004,0,68,68,48,1,480419_sentence_1.wav,6142883565f2f12724b5e613,6,No,2022-05-27_16h31.27.099,ratings_exp,2022.1.4,Win32,59.51318217
,,,,,,1.111111111,3.0564,1.90370376,1.2431,0,69,69,51,1,481532_sentence_2.wav,6142883565f2f12724b5e613,6,No,2022-05-27_16h31.27.099,ratings_exp,2022.1.4,Win32,59.51318217
,,,,,,2.911111337,5.0672,2.014814871,2.1215,0,70,70,65,1,485507_sentence_2.wav,6142883565f2f12724b5e613,6,No,2022-05-27_16h31.27.099,ratings_exp,2022.1.4,Win32,59.51318217
,,,,,,5.948148374,6.7893,6.992592706,1.3264,0,71,71,52,1,481962_sentence_1.wav,6142883565f2f12724b5e613,6,No,2022-05-27_16h31.27.099,ratings_exp,2022.1.4,Win32,59.51318217
,,,,,,3.037037037,8.9272,4.955555669,1.3121,0,72,72,46,1,479904_sentence_1.wav,6142883565f2f12724b5e613,6,No,2022-05-27_16h31.27.099,ratings_exp,2022.1.4,Win32,59.51318217
,,,,,,2.985185411,6.4879,2.992592706,1.0737,0,73,73,60,1,484573_sentence_1.wav,6142883565f2f12724b5e613,6,No,2022-05-27_16h31.27.099,ratings_exp,2022.1.4,Win32,59.51318217
,,,,,,1.896296466,6.7787,1,2.0331,0,74,74,10,1,469581_sentence_1.wav,6142883565f2f12724b5e613,6,No,2022-05-27_16h31.27.099,ratings_exp,2022.1.4,Win32,59.51318217
,,,,,,7.029629743,4.7563,5.93333322,1.9716,0,75,75,7,1,469553_sentence_2.wav,6142883565f2f12724b5e613,6,No,2022-05-27_16h31.27.099,ratings_exp,2022.1.4,Win32,59.51318217
,,,,,,2.007407577,6.4448,2,1.0605,0,76,76,15,1,469635_sentence_2.wav,6142883565f2f12724b5e613,6,No,2022-05-27_16h31.27.099,ratings_exp,2022.1.4,Win32,59.51318217
,,,,,,6.022222448,3.799,6,1.1553,0,77,77,6,1,469553_sentence_1.wav,6142883565f2f12724b5e613,6,No,2022-05-27_16h31.27.099,ratings_exp,2022.1.4,Win32,59.51318217
