key_resp.keys,key_resp.rt,eng_proficiency.response,eng_proficiency.rt,eng_proficiency_2.response,eng_proficiency_2.rt,accent_rating.response,accent_rating.rt,accent_rating_2.response,accent_rating_2.rt,trials.thisRepN,trials.thisTrialN,trials.thisN,trials.thisIndex,trials.ran,stim,participant,Cuántos años tenía cuando ud. empezó a aprender el inglés?,Ha enseñado el español cómo seguna lengua?,date,expName,psychopyVersion,OS,frameRate
space,17.5173,5.060604248,35.2873,6.060500217,5.4868,3.97102105,11.6106,6.959321289,7.5355,0,0,0,8,1,469558_sentence_1.wav,615494c60df566552eb04677,25,No,2022-05-27_15h32.16.096,ratings_exp,2022.1.4,MacIntel,59.99880002
,,,,,,6.959757487,23.4415,4.098465712,7.1472,0,1,1,24,1,469875_sentence_1.wav,615494c60df566552eb04677,25,No,2022-05-27_15h32.16.096,ratings_exp,2022.1.4,MacIntel,59.99880002
,,,,,,5.018145616,190.3652,2.032404514,10.463,0,2,2,34,1,471720_sentence_1.wav,615494c60df566552eb04677,25,No,2022-05-27_15h32.16.096,ratings_exp,2022.1.4,MacIntel,59.99880002
,,,,,,3.056440972,29.3641,3.964959852,41.0321,0,3,3,11,1,469581_sentence_2.wav,615494c60df566552eb04677,25,No,2022-05-27_15h32.16.096,ratings_exp,2022.1.4,MacIntel,59.99880002
,,,,,,8.013074002,10.2142,7.918452691,4.4837,0,4,4,26,1,469883_sentence_1.wav,615494c60df566552eb04677,25,No,2022-05-27_15h32.16.096,ratings_exp,2022.1.4,MacIntel,59.99880002
,,,,,,6.93445855,33.9008,4.980960286,16.5675,0,5,5,19,1,469737_sentence_2.wav,615494c60df566552eb04677,25,No,2022-05-27_15h32.16.096,ratings_exp,2022.1.4,MacIntel,59.99880002
,,,,,,6.992663303,9.1736,4.024001736,7.3274,0,6,6,52,1,481962_sentence_1.wav,615494c60df566552eb04677,25,No,2022-05-27_15h32.16.096,ratings_exp,2022.1.4,MacIntel,59.99880002
,,,,,,7.032714844,68.9323,5.910906576,12.9877,0,7,7,45,1,479845_sentence_2.wav,615494c60df566552eb04677,25,No,2022-05-27_15h32.16.096,ratings_exp,2022.1.4,MacIntel,59.99880002
,,,,,,7.008532986,10.035,6.016857096,2.3131,0,8,8,76,1,488322_sentence_1.wav,615494c60df566552eb04677,25,No,2022-05-27_15h32.16.096,ratings_exp,2022.1.4,MacIntel,59.99880002
,,,,,,6.000797526,21.0607,6.009737413,8.9813,0,9,9,74,1,487969_sentence_1.wav,615494c60df566552eb04677,25,No,2022-05-27_15h32.16.096,ratings_exp,2022.1.4,MacIntel,59.99880002
,,,,,,4.949784071,9.3175,6.962616645,2.1371,0,10,10,56,1,484457_sentence_1.wav,615494c60df566552eb04677,25,No,2022-05-27_15h32.16.096,ratings_exp,2022.1.4,MacIntel,59.99880002
,,,,,,7.036852214,15.6286,6.947417535,2.3135,0,11,11,40,1,475707_sentence_1.wav,615494c60df566552eb04677,25,No,2022-05-27_15h32.16.096,ratings_exp,2022.1.4,MacIntel,59.99880002
,,,,,,5.01921875,37.9424,3.969702691,23.8018,0,12,12,23,1,469865_sentence_2.wav,615494c60df566552eb04677,25,No,2022-05-27_15h32.16.096,ratings_exp,2022.1.4,MacIntel,59.99880002
,,,,,,5.94746582,1.6535,7.079193251,19.0932,0,13,13,0,1,469431_sentence_1.wav,615494c60df566552eb04677,25,No,2022-05-27_15h32.16.096,ratings_exp,2022.1.4,MacIntel,59.99880002
,,,,,,4.025960829,20.6801,5.096724718,3.2387,0,14,14,73,1,487696_sentence_2.wav,615494c60df566552eb04677,25,No,2022-05-27_15h32.16.096,ratings_exp,2022.1.4,MacIntel,59.99880002
,,,,,,6.002310113,15.0165,7.077569444,5.9269,0,15,15,48,1,480419_sentence_1.wav,615494c60df566552eb04677,25,No,2022-05-27_15h32.16.096,ratings_exp,2022.1.4,MacIntel,59.99880002
,,,,,,4.988513455,10.0686,5.044205729,55.1507,0,16,16,37,1,472263_sentence_2.wav,615494c60df566552eb04677,25,No,2022-05-27_15h32.16.096,ratings_exp,2022.1.4,MacIntel,59.99880002
,,,,,,1.008540039,10.1467,1.010289171,8.3687,0,17,17,55,1,484271_sentence_2.wav,615494c60df566552eb04677,25,No,2022-05-27_15h32.16.096,ratings_exp,2022.1.4,MacIntel,59.99880002
,,,,,,6.921777344,11.4176,7.963293186,1.6693,0,18,18,32,1,470901_sentence_1.wav,615494c60df566552eb04677,25,No,2022-05-27_15h32.16.096,ratings_exp,2022.1.4,MacIntel,59.99880002
,,,,,,4.961713325,12.7138,4.932860243,93.0158,0,19,19,41,1,475707_sentence_2.wav,615494c60df566552eb04677,25,No,2022-05-27_15h32.16.096,ratings_exp,2022.1.4,MacIntel,59.99880002
,,,,,,4.997549913,6.5012,6.007393663,5.0301,0,20,20,57,1,484457_sentence_2.wav,615494c60df566552eb04677,25,No,2022-05-27_15h32.16.096,ratings_exp,2022.1.4,MacIntel,59.99880002
,,,,,,1.974032661,5.3366,5.013215603,3.0661,0,21,21,47,1,479904_sentence_2.wav,615494c60df566552eb04677,25,No,2022-05-27_15h32.16.096,ratings_exp,2022.1.4,MacIntel,59.99880002
,,,,,,6.075148112,9.497,6.971550564,1.2844,0,22,22,7,1,469553_sentence_2.wav,615494c60df566552eb04677,25,No,2022-05-27_15h32.16.096,ratings_exp,2022.1.4,MacIntel,59.99880002
,,,,,,5.027623698,60.8117,5.093951823,5.5816,0,23,23,70,1,485976_sentence_1.wav,615494c60df566552eb04677,25,No,2022-05-27_15h32.16.096,ratings_exp,2022.1.4,MacIntel,59.99880002
,,,,,,5.940537109,11.3203,5.958511285,43.6168,0,24,24,63,1,484860_sentence_2.wav,615494c60df566552eb04677,25,No,2022-05-27_15h32.16.096,ratings_exp,2022.1.4,MacIntel,59.99880002
,,,,,,5.049211155,5.4339,3.889583876,10.8825,0,25,25,67,1,485567_sentence_2.wav,615494c60df566552eb04677,25,No,2022-05-27_15h32.16.096,ratings_exp,2022.1.4,MacIntel,59.99880002
,,,,,,6.959354384,11.385,7.950295139,1.2496,0,26,26,22,1,469865_sentence_1.wav,615494c60df566552eb04677,25,No,2022-05-27_15h32.16.096,ratings_exp,2022.1.4,MacIntel,59.99880002
,,,,,,1.036709527,5.6076,3.945431858,6.8668,0,27,27,58,1,484549_sentence_1.wav,615494c60df566552eb04677,25,No,2022-05-27_15h32.16.096,ratings_exp,2022.1.4,MacIntel,59.99880002
,,,,,,5.941070421,11.2313,6.014745551,22.7386,0,28,28,66,1,485567_sentence_1.wav,615494c60df566552eb04677,25,No,2022-05-27_15h32.16.096,ratings_exp,2022.1.4,MacIntel,59.99880002
,,,,,,7.017011719,12.1168,5.003109266,7.5952,0,29,29,36,1,472263_sentence_1.wav,615494c60df566552eb04677,25,No,2022-05-27_15h32.16.096,ratings_exp,2022.1.4,MacIntel,59.99880002
,,,,,,3.949369032,19.3352,4.941262478,64.4531,0,30,30,65,1,485507_sentence_2.wav,615494c60df566552eb04677,25,No,2022-05-27_15h32.16.096,ratings_exp,2022.1.4,MacIntel,59.99880002
,,,,,,3.919462348,103.9575,5.969554579,3.2857,0,31,31,39,1,472268_sentence_2.wav,615494c60df566552eb04677,25,No,2022-05-27_15h32.16.096,ratings_exp,2022.1.4,MacIntel,59.99880002
,,,,,,4.000643446,34.7571,3.038567166,13.0485,0,32,32,33,1,470901_sentence_2.wav,615494c60df566552eb04677,25,No,2022-05-27_15h32.16.096,ratings_exp,2022.1.4,MacIntel,59.99880002
,,,,,,3.999319661,8.6856,1.100544705,2.8867,0,33,33,35,1,471720_sentence_2.wav,615494c60df566552eb04677,25,No,2022-05-27_15h32.16.096,ratings_exp,2022.1.4,MacIntel,59.99880002
,,,,,,4.072422418,9.339,4.982402344,1.9699,0,34,34,53,1,481962_sentence_2.wav,615494c60df566552eb04677,25,No,2022-05-27_15h32.16.096,ratings_exp,2022.1.4,MacIntel,59.99880002
,,,,,,3.971708984,51.2101,6.994305013,5.3669,0,35,35,5,1,469495_sentence_2.wav,615494c60df566552eb04677,25,No,2022-05-27_15h32.16.096,ratings_exp,2022.1.4,MacIntel,59.99880002
,,,,,,4.914074978,12.0867,6.058460829,33.647,0,36,36,13,1,469614_sentence_2.wav,615494c60df566552eb04677,25,No,2022-05-27_15h32.16.096,ratings_exp,2022.1.4,MacIntel,59.99880002
,,,,,,3.978839518,5.8826,2.984630534,12.5244,0,37,37,20,1,469805_sentence_1.wav,615494c60df566552eb04677,25,No,2022-05-27_15h32.16.096,ratings_exp,2022.1.4,MacIntel,59.99880002
,,,,,,4.020123155,43.7948,3.096302626,22.6991,0,38,38,15,1,469635_sentence_2.wav,615494c60df566552eb04677,25,No,2022-05-27_15h32.16.096,ratings_exp,2022.1.4,MacIntel,59.99880002
,,,,,,3.971832682,8.051,6.035939128,1.8678,0,39,39,38,1,472268_sentence_1.wav,615494c60df566552eb04677,25,No,2022-05-27_15h32.16.096,ratings_exp,2022.1.4,MacIntel,59.99880002
,,,,,,5.109692925,108.8664,7.079219835,8.2646,0,40,40,30,1,470408_sentence_1.wav,615494c60df566552eb04677,25,No,2022-05-27_15h32.16.096,ratings_exp,2022.1.4,MacIntel,59.99880002
,,,,,,6.036845703,8.5012,6.002696398,4.8634,0,41,41,14,1,469635_sentence_1.wav,615494c60df566552eb04677,25,No,2022-05-27_15h32.16.096,ratings_exp,2022.1.4,MacIntel,59.99880002
,,,,,,3.028337945,14.2834,4.97929796,53.0523,0,42,42,42,1,477072_sentence_1.wav,615494c60df566552eb04677,25,No,2022-05-27_15h32.16.096,ratings_exp,2022.1.4,MacIntel,59.99880002
,,,,,,2.00071696,10.3678,2.071274143,3.8702,0,43,43,60,1,484573_sentence_1.wav,615494c60df566552eb04677,25,No,2022-05-27_15h32.16.096,ratings_exp,2022.1.4,MacIntel,59.99880002
,,,,,,1.992753092,8.3269,1.018035482,7.3985,0,44,44,54,1,484271_sentence_1.wav,615494c60df566552eb04677,25,No,2022-05-27_15h32.16.096,ratings_exp,2022.1.4,MacIntel,59.99880002
,,,,,,4.970603841,37.0844,1.984372016,11.4376,0,45,45,50,1,481532_sentence_1.wav,615494c60df566552eb04677,25,No,2022-05-27_15h32.16.096,ratings_exp,2022.1.4,MacIntel,59.99880002
,,,,,,6.943816732,7.6464,7.035493164,2.317,0,46,46,1,1,469431_sentence_2.wav,615494c60df566552eb04677,25,No,2022-05-27_15h32.16.096,ratings_exp,2022.1.4,MacIntel,59.99880002
,,,,,,6.903179796,15.0418,4.99839464,2.2526,0,47,47,21,1,469805_sentence_2.wav,615494c60df566552eb04677,25,No,2022-05-27_15h32.16.096,ratings_exp,2022.1.4,MacIntel,59.99880002
,,,,,,7.049343533,10.3069,5.033604601,2.0026,0,48,48,64,1,485507_sentence_1.wav,615494c60df566552eb04677,25,No,2022-05-27_15h32.16.096,ratings_exp,2022.1.4,MacIntel,59.99880002
,,,,,,4.09898112,12.458,7.075290256,5.2168,0,49,49,9,1,469558_sentence_2.wav,615494c60df566552eb04677,25,No,2022-05-27_15h32.16.096,ratings_exp,2022.1.4,MacIntel,59.99880002
,,,,,,5.076247287,28.9832,6.116687826,1.9692,0,50,50,61,1,484573_sentence_2.wav,615494c60df566552eb04677,25,No,2022-05-27_15h32.16.096,ratings_exp,2022.1.4,MacIntel,59.99880002
,,,,,,2.93612793,5.7251,6.092938368,2.4341,0,51,51,59,1,484549_sentence_2.wav,615494c60df566552eb04677,25,No,2022-05-27_15h32.16.096,ratings_exp,2022.1.4,MacIntel,59.99880002
,,,,,,4.108460829,19.446,5.991006402,33.811,0,52,52,2,1,469440_sentence_1.wav,615494c60df566552eb04677,25,No,2022-05-27_15h32.16.096,ratings_exp,2022.1.4,MacIntel,59.99880002
,,,,,,6.06285102,12.8508,7.029130859,1.2349,0,53,53,29,1,469909_sentence_2.wav,615494c60df566552eb04677,25,No,2022-05-27_15h32.16.096,ratings_exp,2022.1.4,MacIntel,59.99880002
,,,,,,2.965378689,12.5414,5.932633464,2.101,0,54,54,4,1,469495_sentence_1.wav,615494c60df566552eb04677,25,No,2022-05-27_15h32.16.096,ratings_exp,2022.1.4,MacIntel,59.99880002
,,,,,,5.963561198,46.4916,5.963561198,1.2694,0,55,55,25,1,469875_sentence_2.wav,615494c60df566552eb04677,25,No,2022-05-27_15h32.16.096,ratings_exp,2022.1.4,MacIntel,59.99880002
,,,,,,4.079416775,22.9409,5.059645182,2.6027,0,56,56,28,1,469909_sentence_1.wav,615494c60df566552eb04677,25,No,2022-05-27_15h32.16.096,ratings_exp,2022.1.4,MacIntel,59.99880002
,,,,,,6.910494792,13.9416,7.056930339,0.8684,0,57,57,18,1,469737_sentence_1.wav,615494c60df566552eb04677,25,No,2022-05-27_15h32.16.096,ratings_exp,2022.1.4,MacIntel,59.99880002
,,,,,,3.925061306,14.7248,5.02694987,2.2725,0,58,58,69,1,485605_sentence_2.wav,615494c60df566552eb04677,25,No,2022-05-27_15h32.16.096,ratings_exp,2022.1.4,MacIntel,59.99880002
,,,,,,3.955619575,12.3069,4.032491862,4.9658,0,59,59,62,1,484860_sentence_1.wav,615494c60df566552eb04677,25,No,2022-05-27_15h32.16.096,ratings_exp,2022.1.4,MacIntel,59.99880002
,,,,,,6.006348741,7.5992,6.006348741,3.3358,0,60,60,49,1,480419_sentence_2.wav,615494c60df566552eb04677,25,No,2022-05-27_15h32.16.096,ratings_exp,2022.1.4,MacIntel,59.99880002
,,,,,,2.956219076,5.841,3.969248589,1.4534,0,61,61,51,1,481532_sentence_2.wav,615494c60df566552eb04677,25,No,2022-05-27_15h32.16.096,ratings_exp,2022.1.4,MacIntel,59.99880002
,,,,,,3.969248589,7.3699,6.984419488,10.3486,0,62,62,77,1,488322_sentence_2.wav,615494c60df566552eb04677,25,No,2022-05-27_15h32.16.096,ratings_exp,2022.1.4,MacIntel,59.99880002
,,,,,,5.063723416,16.1365,6.093920898,2.2848,0,63,63,68,1,485605_sentence_1.wav,615494c60df566552eb04677,25,No,2022-05-27_15h32.16.096,ratings_exp,2022.1.4,MacIntel,59.99880002
,,,,,,5.024616428,8.525,7.049286024,1.9497,0,64,64,72,1,487696_sentence_1.wav,615494c60df566552eb04677,25,No,2022-05-27_15h32.16.096,ratings_exp,2022.1.4,MacIntel,59.99880002
,,,,,,3.90480306,9.5744,6.031096463,1.6194,0,65,65,71,1,485976_sentence_2.wav,615494c60df566552eb04677,25,No,2022-05-27_15h32.16.096,ratings_exp,2022.1.4,MacIntel,59.99880002
,,,,,,8.05594401,6.7903,8.960511068,3.9006,0,66,66,27,1,469883_sentence_2.wav,615494c60df566552eb04677,25,No,2022-05-27_15h32.16.096,ratings_exp,2022.1.4,MacIntel,59.99880002
,,,,,,5.981302083,13.5524,7.004311523,2.5662,0,67,67,6,1,469553_sentence_1.wav,615494c60df566552eb04677,25,No,2022-05-27_15h32.16.096,ratings_exp,2022.1.4,MacIntel,59.99880002
,,,,,,5.016094293,21.2255,6.001739366,7.5318,0,68,68,16,1,469639_sentence_1.wav,615494c60df566552eb04677,25,No,2022-05-27_15h32.16.096,ratings_exp,2022.1.4,MacIntel,59.99880002
,,,,,,4.902916667,6.8211,5.99511773,1.9322,0,69,69,31,1,470408_sentence_2.wav,615494c60df566552eb04677,25,No,2022-05-27_15h32.16.096,ratings_exp,2022.1.4,MacIntel,59.99880002
,,,,,,5.11749783,12.4252,7.04441786,1.021,0,70,70,3,1,469440_sentence_2.wav,615494c60df566552eb04677,25,No,2022-05-27_15h32.16.096,ratings_exp,2022.1.4,MacIntel,59.99880002
,,,,,,6.047918837,6.1065,6.933710937,1.1193,0,71,71,12,1,469614_sentence_1.wav,615494c60df566552eb04677,25,No,2022-05-27_15h32.16.096,ratings_exp,2022.1.4,MacIntel,59.99880002
,,,,,,6.011002062,10.1748,6.969986979,1.2679,0,72,72,44,1,479845_sentence_1.wav,615494c60df566552eb04677,25,No,2022-05-27_15h32.16.096,ratings_exp,2022.1.4,MacIntel,59.99880002
,,,,,,3.916267361,12.6062,3.985263129,1.753,0,73,73,46,1,479904_sentence_1.wav,615494c60df566552eb04677,25,No,2022-05-27_15h32.16.096,ratings_exp,2022.1.4,MacIntel,59.99880002
,,,,,,4.915532227,7.8916,7.06758572,1.1509,0,74,74,75,1,487969_sentence_2.wav,615494c60df566552eb04677,25,No,2022-05-27_15h32.16.096,ratings_exp,2022.1.4,MacIntel,59.99880002
,,,,,,3.996488173,9.494,5.087704536,2.7596,0,75,75,10,1,469581_sentence_1.wav,615494c60df566552eb04677,25,No,2022-05-27_15h32.16.096,ratings_exp,2022.1.4,MacIntel,59.99880002
,,,,,,4.050526801,19.594,4.931762695,2.3175,0,76,76,43,1,477072_sentence_2.wav,615494c60df566552eb04677,25,No,2022-05-27_15h32.16.096,ratings_exp,2022.1.4,MacIntel,59.99880002
,,,,,,2.951483832,19.0769,4.946223958,2.5707,0,77,77,17,1,469639_sentence_2.wav,615494c60df566552eb04677,25,No,2022-05-27_15h32.16.096,ratings_exp,2022.1.4,MacIntel,59.99880002
