key_resp.keys,key_resp.rt,eng_proficiency.response,eng_proficiency.rt,eng_proficiency_2.response,eng_proficiency_2.rt,accent_rating.response,accent_rating.rt,accent_rating_2.response,accent_rating_2.rt,trials.thisRepN,trials.thisTrialN,trials.thisN,trials.thisIndex,trials.ran,stim,participant,Cuántos años tenía cuando ud. empezó a aprender el inglés?,Ha enseñado el español cómo seguna lengua?,date,expName,psychopyVersion,OS,frameRate
space,22.024,8.95,3.319,8.013333333,5.438,3.044444444,15.294,8.004444444,8.79,0,0,0,47,1,479904_sentence_2.wav,kristell,0,si,2022-05-27_15h39.26.773,ratings_exp,2022.1.4,MacIntel,58.82352941
,,,,,,1.08,19.249,3.008888889,7.869,0,1,1,54,1,484271_sentence_1.wav,kristell,0,si,2022-05-27_15h39.26.773,ratings_exp,2022.1.4,MacIntel,58.82352941
,,,,,,8.982222222,11.307,8.982222222,5.368,0,2,2,77,1,488322_sentence_2.wav,kristell,0,si,2022-05-27_15h39.26.773,ratings_exp,2022.1.4,MacIntel,58.82352941
,,,,,,7,14.969,7.995555556,8.065,0,3,3,1,1,469431_sentence_2.wav,kristell,0,si,2022-05-27_15h39.26.773,ratings_exp,2022.1.4,MacIntel,58.82352941
,,,,,,6.973333333,15.535,8.031111111,5.287,0,4,4,28,1,469909_sentence_1.wav,kristell,0,si,2022-05-27_15h39.26.773,ratings_exp,2022.1.4,MacIntel,58.82352941
,,,,,,3.977777778,13.044,7,5.701,0,5,5,57,1,484457_sentence_2.wav,kristell,0,si,2022-05-27_15h39.26.773,ratings_exp,2022.1.4,MacIntel,58.82352941
,,,,,,2.013333333,13.004,6.048888889,6.806,0,6,6,35,1,471720_sentence_2.wav,kristell,0,si,2022-05-27_15h39.26.773,ratings_exp,2022.1.4,MacIntel,58.82352941
,,,,,,5.96,11.53,8.004444444,6.32,0,7,7,7,1,469553_sentence_2.wav,kristell,0,si,2022-05-27_15h39.26.773,ratings_exp,2022.1.4,MacIntel,58.82352941
,,,,,,3,10.871,6.004444444,6.628,0,8,8,41,1,475707_sentence_2.wav,kristell,0,si,2022-05-27_15h39.26.773,ratings_exp,2022.1.4,MacIntel,58.82352941
,,,,,,2.04,10.401,6.022222222,4.039,0,9,9,3,1,469440_sentence_2.wav,kristell,0,si,2022-05-27_15h39.26.773,ratings_exp,2022.1.4,MacIntel,58.82352941
,,,,,,2.022222222,10.357,6.022222222,5.301,0,10,10,44,1,479845_sentence_1.wav,kristell,0,si,2022-05-27_15h39.26.773,ratings_exp,2022.1.4,MacIntel,58.82352941
,,,,,,7.986666667,10.467,5.986666667,8.941,0,11,11,74,1,487969_sentence_1.wav,kristell,0,si,2022-05-27_15h39.26.773,ratings_exp,2022.1.4,MacIntel,58.82352941
,,,,,,2.982222222,9.385,7,4.358,0,12,12,53,1,481962_sentence_2.wav,kristell,0,si,2022-05-27_15h39.26.773,ratings_exp,2022.1.4,MacIntel,58.82352941
,,,,,,2.004444444,12.395,5,4.188,0,13,13,75,1,487969_sentence_2.wav,kristell,0,si,2022-05-27_15h39.26.773,ratings_exp,2022.1.4,MacIntel,58.82352941
,,,,,,1.977777778,6.656,6.004444444,3.326,0,14,14,38,1,472268_sentence_1.wav,kristell,0,si,2022-05-27_15h39.26.773,ratings_exp,2022.1.4,MacIntel,58.82352941
,,,,,,3.026666667,14.948,7,7.771,0,15,15,42,1,477072_sentence_1.wav,kristell,0,si,2022-05-27_15h39.26.773,ratings_exp,2022.1.4,MacIntel,58.82352941
,,,,,,2.991111111,10.325,5.995555556,7.369,0,16,16,6,1,469553_sentence_1.wav,kristell,0,si,2022-05-27_15h39.26.773,ratings_exp,2022.1.4,MacIntel,58.82352941
,,,,,,1.026666667,8.406,3.017777778,2.095,0,17,17,58,1,484549_sentence_1.wav,kristell,0,si,2022-05-27_15h39.26.773,ratings_exp,2022.1.4,MacIntel,58.82352941
,,,,,,7.995555556,9.631,7.995555556,3.753,0,18,18,49,1,480419_sentence_2.wav,kristell,0,si,2022-05-27_15h39.26.773,ratings_exp,2022.1.4,MacIntel,58.82352941
,,,,,,2.013333333,8.086,8.964444444,4.609,0,19,19,76,1,488322_sentence_1.wav,kristell,0,si,2022-05-27_15h39.26.773,ratings_exp,2022.1.4,MacIntel,58.82352941
,,,,,,2.022222222,8.549,6.04,1.506,0,20,20,20,1,469805_sentence_1.wav,kristell,0,si,2022-05-27_15h39.26.773,ratings_exp,2022.1.4,MacIntel,58.82352941
,,,,,,6.982222222,10.955,7.986666667,2.545,0,21,21,4,1,469495_sentence_1.wav,kristell,0,si,2022-05-27_15h39.26.773,ratings_exp,2022.1.4,MacIntel,58.82352941
,,,,,,1.986666667,12.799,4.991111111,8.322,0,22,22,60,1,484573_sentence_1.wav,kristell,0,si,2022-05-27_15h39.26.773,ratings_exp,2022.1.4,MacIntel,58.82352941
,,,,,,5.951111111,11.052,8.022222222,6.642,0,23,23,16,1,469639_sentence_1.wav,kristell,0,si,2022-05-27_15h39.26.773,ratings_exp,2022.1.4,MacIntel,58.82352941
,,,,,,1.951111111,10.267,3.924444444,1.857,0,24,24,11,1,469581_sentence_2.wav,kristell,0,si,2022-05-27_15h39.26.773,ratings_exp,2022.1.4,MacIntel,58.82352941
,,,,,,2.022222222,10.388,5.995555556,2.897,0,25,25,50,1,481532_sentence_1.wav,kristell,0,si,2022-05-27_15h39.26.773,ratings_exp,2022.1.4,MacIntel,58.82352941
,,,,,,1,9.018,5.026666667,2.223,0,26,26,10,1,469581_sentence_1.wav,kristell,0,si,2022-05-27_15h39.26.773,ratings_exp,2022.1.4,MacIntel,58.82352941
,,,,,,1.977777778,11.704,8.031111111,1.813,0,27,27,40,1,475707_sentence_1.wav,kristell,0,si,2022-05-27_15h39.26.773,ratings_exp,2022.1.4,MacIntel,58.82352941
,,,,,,1.008888889,8.449,7.008888889,1.637,0,28,28,23,1,469865_sentence_2.wav,kristell,0,si,2022-05-27_15h39.26.773,ratings_exp,2022.1.4,MacIntel,58.82352941
,,,,,,4.013333333,42.553,6.013333333,6.019,0,29,29,72,1,487696_sentence_1.wav,kristell,0,si,2022-05-27_15h39.26.773,ratings_exp,2022.1.4,MacIntel,58.82352941
,,,,,,6.04,13.011,8.946666667,2.169,0,30,30,37,1,472263_sentence_2.wav,kristell,0,si,2022-05-27_15h39.26.773,ratings_exp,2022.1.4,MacIntel,58.82352941
,,,,,,4.013333333,53.472,6.964444444,8.254,0,31,31,39,1,472268_sentence_2.wav,kristell,0,si,2022-05-27_15h39.26.773,ratings_exp,2022.1.4,MacIntel,58.82352941
,,,,,,2.928888889,20.049,5.951111111,8.676,0,32,32,48,1,480419_sentence_1.wav,kristell,0,si,2022-05-27_15h39.26.773,ratings_exp,2022.1.4,MacIntel,58.82352941
,,,,,,1.026666667,5.453,5.053333333,2.157,0,33,33,9,1,469558_sentence_2.wav,kristell,0,si,2022-05-27_15h39.26.773,ratings_exp,2022.1.4,MacIntel,58.82352941
,,,,,,2.964444444,7.223,6.013333333,3.728,0,34,34,56,1,484457_sentence_1.wav,kristell,0,si,2022-05-27_15h39.26.773,ratings_exp,2022.1.4,MacIntel,58.82352941
,,,,,,4.031111111,19.961,6.004444444,5.757,0,35,35,69,1,485605_sentence_2.wav,kristell,0,si,2022-05-27_15h39.26.773,ratings_exp,2022.1.4,MacIntel,58.82352941
,,,,,,4.004444444,5.628,8.013333333,2.136,0,36,36,0,1,469431_sentence_1.wav,kristell,0,si,2022-05-27_15h39.26.773,ratings_exp,2022.1.4,MacIntel,58.82352941
,,,,,,1.96,5.584,6.973333333,6.421,0,37,37,68,1,485605_sentence_1.wav,kristell,0,si,2022-05-27_15h39.26.773,ratings_exp,2022.1.4,MacIntel,58.82352941
,,,,,,3.986666667,57.773,7,5.916,0,38,38,32,1,470901_sentence_1.wav,kristell,0,si,2022-05-27_15h39.26.773,ratings_exp,2022.1.4,MacIntel,58.82352941
,,,,,,6.013333333,8.4,8.964444444,4.221,0,39,39,26,1,469883_sentence_1.wav,kristell,0,si,2022-05-27_15h39.26.773,ratings_exp,2022.1.4,MacIntel,58.82352941
,,,,,,1.026666667,4.472,4.004444444,4.976,0,40,40,59,1,484549_sentence_2.wav,kristell,0,si,2022-05-27_15h39.26.773,ratings_exp,2022.1.4,MacIntel,58.82352941
,,,,,,2.04,4.85,7.008888889,2.353,0,41,41,8,1,469558_sentence_1.wav,kristell,0,si,2022-05-27_15h39.26.773,ratings_exp,2022.1.4,MacIntel,58.82352941
,,,,,,1,4.154,6.022222222,7.237,0,42,42,70,1,485976_sentence_1.wav,kristell,0,si,2022-05-27_15h39.26.773,ratings_exp,2022.1.4,MacIntel,58.82352941
,,,,,,2.004444444,4.841,7,7.715,0,43,43,29,1,469909_sentence_2.wav,kristell,0,si,2022-05-27_15h39.26.773,ratings_exp,2022.1.4,MacIntel,58.82352941
,,,,,,2.991111111,5.851,8.004444444,1.774,0,44,44,67,1,485567_sentence_2.wav,kristell,0,si,2022-05-27_15h39.26.773,ratings_exp,2022.1.4,MacIntel,58.82352941
,,,,,,2.991111111,5.138,6.004444444,2.11,0,45,45,15,1,469635_sentence_2.wav,kristell,0,si,2022-05-27_15h39.26.773,ratings_exp,2022.1.4,MacIntel,58.82352941
,,,,,,3.008888889,4.577,8.031111111,2.098,0,46,46,22,1,469865_sentence_1.wav,kristell,0,si,2022-05-27_15h39.26.773,ratings_exp,2022.1.4,MacIntel,58.82352941
,,,,,,2.973333333,7.167,8.937777778,2.754,0,47,47,36,1,472263_sentence_1.wav,kristell,0,si,2022-05-27_15h39.26.773,ratings_exp,2022.1.4,MacIntel,58.82352941
,,,,,,6.982222222,5.737,8.911111111,2.525,0,48,48,52,1,481962_sentence_1.wav,kristell,0,si,2022-05-27_15h39.26.773,ratings_exp,2022.1.4,MacIntel,58.82352941
,,,,,,1.008888889,4.544,7.008888889,1.596,0,49,49,66,1,485567_sentence_1.wav,kristell,0,si,2022-05-27_15h39.26.773,ratings_exp,2022.1.4,MacIntel,58.82352941
,,,,,,1.986666667,6.552,7.995555556,2.969,0,50,50,73,1,487696_sentence_2.wav,kristell,0,si,2022-05-27_15h39.26.773,ratings_exp,2022.1.4,MacIntel,58.82352941
,,,,,,1.995555556,3.16,7.062222222,2.658,0,51,51,5,1,469495_sentence_2.wav,kristell,0,si,2022-05-27_15h39.26.773,ratings_exp,2022.1.4,MacIntel,58.82352941
,,,,,,3.017777778,3.991,7.053333333,2.925,0,52,52,63,1,484860_sentence_2.wav,kristell,0,si,2022-05-27_15h39.26.773,ratings_exp,2022.1.4,MacIntel,58.82352941
,,,,,,5.986666667,6.698,9,4.769,0,53,53,2,1,469440_sentence_1.wav,kristell,0,si,2022-05-27_15h39.26.773,ratings_exp,2022.1.4,MacIntel,58.82352941
,,,,,,2.973333333,4.37,8.013333333,1.374,0,54,54,18,1,469737_sentence_1.wav,kristell,0,si,2022-05-27_15h39.26.773,ratings_exp,2022.1.4,MacIntel,58.82352941
,,,,,,4.004444444,10.471,7.026666667,5.095,0,55,55,65,1,485507_sentence_2.wav,kristell,0,si,2022-05-27_15h39.26.773,ratings_exp,2022.1.4,MacIntel,58.82352941
,,,,,,2.955555556,7.87,5.968888889,1.607,0,56,56,51,1,481532_sentence_2.wav,kristell,0,si,2022-05-27_15h39.26.773,ratings_exp,2022.1.4,MacIntel,58.82352941
,,,,,,3.986666667,3.122,8.031111111,1.325,0,57,57,46,1,479904_sentence_1.wav,kristell,0,si,2022-05-27_15h39.26.773,ratings_exp,2022.1.4,MacIntel,58.82352941
,,,,,,6.004444444,4.709,8.013333333,3.795,0,58,58,17,1,469639_sentence_2.wav,kristell,0,si,2022-05-27_15h39.26.773,ratings_exp,2022.1.4,MacIntel,58.82352941
,,,,,,3.995555556,4.951,7.96,1.369,0,59,59,33,1,470901_sentence_2.wav,kristell,0,si,2022-05-27_15h39.26.773,ratings_exp,2022.1.4,MacIntel,58.82352941
,,,,,,6.093333333,5.587,8.022222222,2.622,0,60,60,30,1,470408_sentence_1.wav,kristell,0,si,2022-05-27_15h39.26.773,ratings_exp,2022.1.4,MacIntel,58.82352941
,,,,,,6.031111111,7.173,7.986666667,2.913,0,61,61,31,1,470408_sentence_2.wav,kristell,0,si,2022-05-27_15h39.26.773,ratings_exp,2022.1.4,MacIntel,58.82352941
,,,,,,5.053333333,51.103,7.96,3.122,0,62,62,12,1,469614_sentence_1.wav,kristell,0,si,2022-05-27_15h39.26.773,ratings_exp,2022.1.4,MacIntel,58.82352941
,,,,,,4.004444444,4.891,8.946666667,1.927,0,63,63,25,1,469875_sentence_2.wav,kristell,0,si,2022-05-27_15h39.26.773,ratings_exp,2022.1.4,MacIntel,58.82352941
,,,,,,1.995555556,3.278,9,5.787,0,64,64,13,1,469614_sentence_2.wav,kristell,0,si,2022-05-27_15h39.26.773,ratings_exp,2022.1.4,MacIntel,58.82352941
,,,,,,3.133333333,5.554,7.062222222,2.142,0,65,65,71,1,485976_sentence_2.wav,kristell,0,si,2022-05-27_15h39.26.773,ratings_exp,2022.1.4,MacIntel,58.82352941
,,,,,,3.053333333,4.16,8.022222222,3.845,0,66,66,19,1,469737_sentence_2.wav,kristell,0,si,2022-05-27_15h39.26.773,ratings_exp,2022.1.4,MacIntel,58.82352941
,,,,,,5.986666667,3.785,6.013333333,2.67,0,67,67,61,1,484573_sentence_2.wav,kristell,0,si,2022-05-27_15h39.26.773,ratings_exp,2022.1.4,MacIntel,58.82352941
,,,,,,2.031111111,5.721,6.004444444,1.274,0,68,68,64,1,485507_sentence_1.wav,kristell,0,si,2022-05-27_15h39.26.773,ratings_exp,2022.1.4,MacIntel,58.82352941
,,,,,,1.008888889,3.795,4.955555556,1.861,0,69,69,55,1,484271_sentence_2.wav,kristell,0,si,2022-05-27_15h39.26.773,ratings_exp,2022.1.4,MacIntel,58.82352941
,,,,,,4.013333333,4.11,7.986666667,1.746,0,70,70,14,1,469635_sentence_1.wav,kristell,0,si,2022-05-27_15h39.26.773,ratings_exp,2022.1.4,MacIntel,58.82352941
,,,,,,1.124444444,4.035,5.96,1.57,0,71,71,43,1,477072_sentence_2.wav,kristell,0,si,2022-05-27_15h39.26.773,ratings_exp,2022.1.4,MacIntel,58.82352941
,,,,,,3.942222222,5.288,6.991111111,1.773,0,72,72,24,1,469875_sentence_1.wav,kristell,0,si,2022-05-27_15h39.26.773,ratings_exp,2022.1.4,MacIntel,58.82352941
,,,,,,3.933333333,3.672,7.977777778,1.491,0,73,73,21,1,469805_sentence_2.wav,kristell,0,si,2022-05-27_15h39.26.773,ratings_exp,2022.1.4,MacIntel,58.82352941
,,,,,,2.955555556,3.194,7.044444444,1.446,0,74,74,62,1,484860_sentence_1.wav,kristell,0,si,2022-05-27_15h39.26.773,ratings_exp,2022.1.4,MacIntel,58.82352941
,,,,,,6.004444444,4.802,8.022222222,1.069,0,75,75,45,1,479845_sentence_2.wav,kristell,0,si,2022-05-27_15h39.26.773,ratings_exp,2022.1.4,MacIntel,58.82352941
,,,,,,2.031111111,2.805,4.946666667,2.225,0,76,76,34,1,471720_sentence_1.wav,kristell,0,si,2022-05-27_15h39.26.773,ratings_exp,2022.1.4,MacIntel,58.82352941
,,,,,,5.942222222,3.743,8.973333333,1.694,0,77,77,27,1,469883_sentence_2.wav,kristell,0,si,2022-05-27_15h39.26.773,ratings_exp,2022.1.4,MacIntel,58.82352941
